#time,accel_x,accel_y,accel_z
233.260183,814.226536,-10112.460574,-148.041188
233.260503,1406.391290,-10035.851024,0.000000
233.260823,1110.308913,-9959.241474,74.020594
233.261143,1924.535449,-10342.289223,-74.020594
233.261463,1480.411884,-10112.460574,-666.185348
233.261783,1406.391290,-9422.974625,-444.123565
233.262103,370.102971,-10265.679673,-518.144159
233.262423,-222.061783,-9959.241474,-888.247130
233.262743,-814.226536,-10189.070123,-962.267725
233.263063,0.000000,-9959.241474,-1406.391290
233.263383,518.144159,-9806.022374,-1110.308913
233.263703,740.205942,-9806.022374,-1184.329507
233.264023,1258.350101,-10112.460574,-666.185348
233.264343,962.267725,-9882.631924,-740.205942
233.264663,888.247130,-10572.117872,-370.102971
233.264983,814.226536,-9959.241474,0.000000
233.265303,518.144159,-10342.289223,370.102971
233.265623,888.247130,-10112.460574,0.000000
233.265943,888.247130,-9499.584175,0.000000
233.266263,1036.288319,-10035.851024,-518.144159
233.266583,1110.308913,-10265.679673,-370.102971
233.266903,592.164754,-9882.631924,-592.164754
233.267223,148.041188,-10878.556072,-1554.432478
233.267543,0.000000,-10189.070123,-1480.411884
233.267863,222.061783,-10418.898773,-1406.391290
233.268183,0.000000,-9959.241474,-1480.411884
233.268503,1110.308913,-10418.898773,-1258.350101
233.268823,888.247130,-9729.412825,-1110.308913
233.269143,1184.329507,-10342.289223,-592.164754
233.269463,740.205942,-9882.631924,-592.164754
233.269783,444.123565,-10035.851024,0.000000
233.270103,222.061783,-10342.289223,0.000000
233.270423,370.102971,-10189.070123,-296.082377
233.270743,370.102971,-10112.460574,0.000000
233.271063,1332.370696,-10112.460574,-148.041188
233.271383,1924.535449,-10572.117872,-518.144159
233.271703,1036.288319,-10035.851024,-370.102971
233.272023,1110.308913,-10265.679673,-814.226536
233.272343,222.061783,-10112.460574,-518.144159
233.272663,-518.144159,-9729.412825,518.144159
233.272983,0.000000,-9959.241474,-962.267725
233.273303,370.102971,-10342.289223,-1332.370696
233.273623,296.082377,-9882.631924,-1554.432478
233.273943,592.164754,-10418.898773,-740.205942
233.274263,518.144159,-10265.679673,-1184.329507
233.274583,296.082377,-10035.851024,-518.144159
233.274903,814.226536,-10418.898773,-296.082377
233.275223,370.102971,-9959.241474,0.000000
233.275543,444.123565,-10265.679673,0.000000
233.275863,1110.308913,-10112.460574,-74.020594
233.276183,1184.329507,-9882.631924,0.000000
233.276502,1628.453072,-10265.679673,0.000000
233.276822,2294.638420,-10572.117872,-740.205942
233.277142,1036.288319,-9882.631924,-740.205942
233.277462,666.185348,-10189.070123,-592.164754
233.277782,0.000000,-9882.631924,-518.144159
233.278102,-444.123565,-9499.584175,-592.164754
233.278422,-74.020594,-9882.631924,-1480.411884
233.278742,666.185348,-10112.460574,-1036.288319
233.279062,1110.308913,-10189.070123,-1110.308913
233.279382,814.226536,-11644.651570,-666.185348
233.279702,1110.308913,-10418.898773,-962.267725
233.280022,592.164754,-9882.631924,-740.205942
233.280342,740.205942,-10418.898773,-370.102971
233.280662,296.082377,-9882.631924,-518.144159
233.280982,0.000000,-10342.289223,0.000000
233.281302,1036.288319,-10112.460574,-148.041188
233.281622,666.185348,-10035.851024,-222.061783
233.281942,1480.411884,-10342.289223,-296.082377
233.282262,1480.411884,-10801.946522,-444.123565
233.282582,1332.370696,-10342.289223,-592.164754
233.282902,444.123565,-9729.412825,-888.247130
233.283222,222.061783,-10342.289223,-814.226536
233.283542,0.000000,-8886.707777,-1258.350101
233.283862,370.102971,-10418.898773,-1406.391290
233.284182,148.041188,-10112.460574,-1184.329507
233.284502,888.247130,-10035.851024,-1184.329507
233.284822,814.226536,-10725.336972,-814.226536
233.285142,296.082377,-9882.631924,-444.123565
233.285462,518.144159,-10418.898773,-296.082377
233.285782,148.041188,-10035.851024,-518.144159
233.286102,444.123565,-10418.898773,74.020594
233.286422,962.267725,-9959.241474,148.041188
233.286742,1110.308913,-10189.070123,74.020594
233.287062,1924.535449,-10112.460574,0.000000
233.287382,1776.494261,-9882.631924,-518.144159
233.287701,666.185348,-10342.289223,0.000000
233.288021,666.185348,-10418.898773,-592.164754
233.288341,74.020594,-10112.460574,-1184.329507
233.288661,-592.164754,-10495.508323,-962.267725
233.288981,-1036.288319,-10342.289223,-518.144159
233.289301,0.000000,-10035.851024,-1480.411884
233.289621,740.205942,-10265.679673,-962.267725
233.289941,740.205942,-10342.289223,-1110.308913
233.290261,666.185348,-10112.460574,-370.102971
233.290581,814.226536,-10112.460574,-222.061783
233.290901,296.082377,-9806.022374,0.000000
233.291221,814.226536,-10495.508323,0.000000
233.291541,1184.329507,-9729.412825,0.000000
233.291861,2294.638420,-10572.117872,148.041188
233.292181,1184.329507,-10112.460574,0.000000
233.292501,1332.370696,-10418.898773,-222.061783
233.292821,592.164754,-10112.460574,-518.144159
233.293141,-592.164754,-9576.193725,0.000000
233.293461,0.000000,-10035.851024,-1184.329507
233.293781,0.000000,-10495.508323,-1258.350101
233.294101,148.041188,-10342.289223,-1628.453072
233.294421,1702.473667,-11338.213370,-2664.741391
233.294741,1036.288319,-10035.851024,-1776.494261
233.295061,666.185348,-10035.851024,-1036.288319
233.295381,1110.308913,-10342.289223,-592.164754
233.295701,592.164754,-9959.241474,0.000000
233.296021,888.247130,-10189.070123,74.020594
233.296341,444.123565,-10035.851024,0.000000
233.296661,962.267725,-10265.679673,0.000000
233.296981,444.123565,-9882.631924,74.020594
233.297301,814.226536,-9882.631924,222.061783
233.297621,1110.308913,-9882.631924,-296.082377
233.297941,444.123565,-9882.631924,-370.102971
233.298261,592.164754,-10342.289223,-1036.288319
233.298581,74.020594,-10495.508323,-1184.329507
233.298900,74.020594,-10418.898773,-1554.432478
233.299220,370.102971,-9882.631924,-1924.535449
233.299540,592.164754,-10418.898773,-1628.453072
233.299860,814.226536,-10572.117872,-1332.370696
233.300180,222.061783,-10189.070123,-814.226536
233.300500,518.144159,-10265.679673,-592.164754
233.300820,518.144159,-10189.070123,148.041188
233.301140,666.185348,-10725.336972,222.061783
233.301460,592.164754,-9882.631924,74.020594
233.301780,1406.391290,-10112.460574,148.041188
233.302100,1184.329507,-9882.631924,0.000000
233.302420,1258.350101,-10189.070123,-148.041188
233.302740,1258.350101,-9422.974625,-592.164754
233.303060,666.185348,-10265.679673,-592.164754
233.303380,592.164754,-10342.289223,-814.226536
233.303700,0.000000,-9959.241474,-1406.391290
233.304020,-518.144159,-10878.556072,-1406.391290
233.304340,296.082377,-9882.631924,-1702.473667
233.304660,666.185348,-10572.117872,-1110.308913
233.304980,592.164754,-9882.631924,-1332.370696
233.305300,962.267725,-8656.879127,-592.164754
233.305620,888.247130,-10342.289223,-518.144159
233.305940,592.164754,-9959.241474,-444.123565
233.306260,1036.288319,-10725.336972,-222.061783
233.306580,888.247130,-10035.851024,0.000000
233.306900,888.247130,-9882.631924,0.000000
233.307220,1554.432478,-10418.898773,74.020594
233.307540,962.267725,-9882.631924,0.000000
233.307860,1110.308913,-10342.289223,-74.020594
233.308180,296.082377,-9882.631924,-814.226536
233.308500,444.123565,-10265.679673,-592.164754
233.308820,0.000000,-10035.851024,-1258.350101
233.309140,0.000000,-10418.898773,-1110.308913
233.309460,222.061783,-10418.898773,-666.185348
233.309780,740.205942,-10112.460574,-962.267725
233.310099,814.226536,-10342.289223,-1184.329507
233.310419,592.164754,-10189.070123,-740.205942
233.310739,2072.576638,-11184.994271,-1406.391290
233.311059,518.144159,-10342.289223,-222.061783
233.311379,666.185348,-9959.241474,-296.082377
233.311699,296.082377,-10342.289223,0.000000
233.312019,740.205942,-10189.070123,-74.020594
233.312339,962.267725,-9806.022374,0.000000
233.312659,1110.308913,-10265.679673,-296.082377
233.312979,444.123565,-9959.241474,-592.164754
233.313299,666.185348,-10342.289223,-740.205942
233.313619,370.102971,-10342.289223,-296.082377
233.313939,592.164754,-9882.631924,-1184.329507
233.314259,666.185348,-10112.460574,-962.267725
233.314579,740.205942,-9882.631924,-1184.329507
233.314899,592.164754,-10189.070123,-1850.514855
233.315219,222.061783,-10342.289223,-888.247130
233.315539,0.000000,-9882.631924,-592.164754
233.315859,370.102971,-10342.289223,-370.102971
233.316179,74.020594,-9039.926876,370.102971
233.316499,592.164754,-9882.631924,0.000000
233.316819,1184.329507,-10418.898773,0.000000
233.317139,1480.411884,-9882.631924,0.000000
233.317459,1776.494261,-11338.213370,74.020594
233.317779,1480.411884,-10495.508323,-518.144159
233.318099,1110.308913,-10265.679673,-148.041188
233.318419,444.123565,-9806.022374,-740.205942
233.318739,370.102971,-10418.898773,-666.185348
233.319059,-222.061783,-10112.460574,-814.226536
233.319379,0.000000,-10035.851024,-1258.350101
233.319699,444.123565,-10725.336972,-1110.308913
233.320019,296.082377,-9959.241474,-1184.329507
233.320339,1036.288319,-11031.775171,-1110.308913
233.320659,370.102971,-9806.022374,-1110.308913
233.320979,296.082377,-10265.679673,-74.020594
233.321299,962.267725,-9959.241474,-592.164754
233.321618,1036.288319,-10495.508323,-518.144159
233.321938,1036.288319,-10112.460574,444.123565
233.322258,1258.350101,-10035.851024,0.000000
233.322578,888.247130,-9959.241474,222.061783
233.322898,888.247130,-10725.336972,0.000000
233.323218,1036.288319,-10112.460574,-74.020594
233.323538,666.185348,-9959.241474,-814.226536
233.323858,148.041188,-9959.241474,-518.144159
233.324178,222.061783,-10112.460574,-1184.329507
233.324498,-74.020594,-10112.460574,-1702.473667
233.324818,74.020594,-10265.679673,-1258.350101
233.325138,518.144159,-10112.460574,-1480.411884
233.325458,370.102971,-10189.070123,-1036.288319
233.325778,518.144159,-9652.803275,-962.267725
233.326098,740.205942,-10035.851024,-666.185348
233.326418,592.164754,-10342.289223,0.000000
233.326738,740.205942,-9959.241474,0.000000
233.327058,1258.350101,-10801.946522,0.000000
233.327378,1628.453072,-10648.727422,74.020594
233.327698,1036.288319,-10035.851024,0.000000
233.328018,1258.350101,-10418.898773,74.020594
233.328338,1036.288319,-9882.631924,-592.164754
233.328658,518.144159,-9959.241474,-370.102971
233.328978,222.061783,-10265.679673,-888.247130
233.329298,0.000000,-9882.631924,-1332.370696
233.329618,296.082377,-10418.898773,-1258.350101
233.329938,148.041188,-9882.631924,-1776.494261
233.330258,888.247130,-10418.898773,-1258.350101
233.330578,666.185348,-10035.851024,-1406.391290
233.330898,814.226536,-10265.679673,-666.185348
233.331218,444.123565,-10342.289223,-74.020594
233.331538,296.082377,-9959.241474,0.000000
233.331858,740.205942,-10112.460574,0.000000
233.332178,740.205942,-9806.022374,74.020594
233.332498,1850.514855,-8044.002729,0.000000
233.332817,1332.370696,-10265.679673,74.020594
233.333137,1554.432478,-9882.631924,0.000000
233.333457,1332.370696,-9959.241474,-222.061783
233.333777,814.226536,-10189.070123,-296.082377
233.334097,0.000000,-9959.241474,-444.123565
233.334417,-74.020594,-10418.898773,-1184.329507
233.334737,0.000000,-10112.460574,-1406.391290
233.335057,444.123565,-10112.460574,-1332.370696
233.335377,370.102971,-10418.898773,-814.226536
233.335697,592.164754,-10035.851024,-1258.350101
233.336017,1110.308913,-10342.289223,-592.164754
233.336337,1184.329507,-9959.241474,-592.164754
233.336657,1036.288319,-9882.631924,222.061783
233.336977,1258.350101,-10112.460574,0.000000
233.337297,740.205942,-10189.070123,0.000000
233.337617,1036.288319,-10189.070123,148.041188
233.337937,1702.473667,-10342.289223,-962.267725
233.338257,962.267725,-10265.679673,-148.041188
233.338577,518.144159,-10112.460574,-296.082377
233.338897,222.061783,-10035.851024,-518.144159
233.339217,444.123565,-9039.926876,-1184.329507
233.339537,148.041188,-10035.851024,-1184.329507
233.339857,0.000000,-9959.241474,-1332.370696
233.340177,592.164754,-9882.631924,-1332.370696
233.340497,1036.288319,-10342.289223,-1036.288319
233.340817,740.205942,-9806.022374,-370.102971
233.341137,592.164754,-9959.241474,-222.061783
233.341457,962.267725,-10572.117872,-74.020594
233.341777,296.082377,-10112.460574,0.000000
233.342097,592.164754,-10495.508323,-444.123565
233.342417,962.267725,-9882.631924,0.000000
233.342737,740.205942,-10265.679673,-518.144159
233.343057,962.267725,-10418.898773,-444.123565
233.343377,1332.370696,-9499.584175,-148.041188
233.343697,962.267725,-10112.460574,-1036.288319
233.344016,888.247130,-10418.898773,-740.205942
233.344336,666.185348,-10265.679673,-518.144159
233.344656,0.000000,-10112.460574,-814.226536
233.344976,148.041188,-10265.679673,-1184.329507
233.345296,296.082377,-10189.070123,-814.226536
233.345616,740.205942,-10035.851024,-1110.308913
233.345936,740.205942,-10265.679673,-370.102971
233.346256,962.267725,-10418.898773,-222.061783
233.346576,740.205942,-10265.679673,-370.102971
233.346896,592.164754,-9882.631924,-444.123565
233.347216,518.144159,-10418.898773,-296.082377
233.347536,1110.308913,-9729.412825,-740.205942
233.347856,592.164754,-10112.460574,-370.102971
233.348176,1110.308913,-10342.289223,-370.102971
233.348496,1110.308913,-10189.070123,0.000000
233.348816,-148.041188,-10035.851024,148.041188
233.349136,888.247130,-10112.460574,-444.123565
233.349456,518.144159,-10725.336972,-370.102971
233.349776,444.123565,-10572.117872,-666.185348
233.350096,222.061783,-10418.898773,-666.185348
233.350416,592.164754,-9652.803275,-1332.370696
233.350736,518.144159,-9959.241474,-1184.329507
233.351056,814.226536,-10342.289223,-740.205942
233.351376,148.041188,-10572.117872,-518.144159
233.351696,962.267725,-10648.727422,-814.226536
233.352016,814.226536,-10189.070123,-592.164754
233.352336,296.082377,-10189.070123,-444.123565
233.352656,444.123565,-10112.460574,-444.123565
233.352976,370.102971,-10189.070123,0.000000
233.353296,1332.370696,-10418.898773,-222.061783
233.353616,1110.308913,-10265.679673,0.000000
233.353936,1036.288319,-9882.631924,-592.164754
233.354256,1850.514855,-11261.603821,-1110.308913
233.354576,0.000000,-10265.679673,-296.082377
233.354896,0.000000,-10189.070123,-444.123565
233.355215,0.000000,-10189.070123,-1036.288319
233.355535,592.164754,-9116.536426,0.000000
233.355855,1110.308913,-10112.460574,-1036.288319
233.356175,1480.411884,-10572.117872,-1110.308913
233.356495,666.185348,-9729.412825,-1184.329507
233.356815,222.061783,-10418.898773,-592.164754
233.357135,296.082377,-10418.898773,-444.123565
233.357455,222.061783,-10112.460574,-740.205942
233.357775,0.000000,-10265.679673,-148.041188
233.358095,888.247130,-10189.070123,-444.123565
233.358415,444.123565,-10725.336972,222.061783
233.358735,1554.432478,-10035.851024,-296.082377
233.359055,1332.370696,-9959.241474,0.000000
233.359375,1776.494261,-10495.508323,-74.020594
233.359695,1110.308913,-8350.440928,-592.164754
233.360015,518.144159,-10342.289223,-370.102971
233.360335,-222.061783,-10112.460574,-888.247130
233.360655,-592.164754,-10189.070123,-962.267725
233.360975,370.102971,-10801.946522,-1184.329507
233.361295,592.164754,-10418.898773,-1480.411884
233.361615,814.226536,-9959.241474,-1184.329507
233.361935,1480.411884,-10648.727422,-962.267725
233.362255,592.164754,-9882.631924,-888.247130
233.362575,370.102971,-9806.022374,222.061783
233.362895,444.123565,-9882.631924,0.000000
233.363215,444.123565,-10342.289223,222.061783
233.363535,1110.308913,-10189.070123,222.061783
233.363855,1110.308913,-10801.946522,0.000000
233.364175,1258.350101,-10035.851024,0.000000
233.364495,1702.473667,-10189.070123,-74.020594
233.364815,888.247130,-9882.631924,-666.185348
233.365135,444.123565,-9346.365076,-1184.329507
233.365455,-296.082377,-9882.631924,-1184.329507
233.365775,-814.226536,-10342.289223,-1110.308913
233.366095,0.000000,-10725.336972,-1628.453072
233.366414,444.123565,-10418.898773,-1554.432478
233.366734,1036.288319,-10265.679673,-1110.308913
233.367054,1332.370696,-10418.898773,-814.226536
233.367374,592.164754,-9959.241474,-592.164754
233.367694,444.123565,-10265.679673,74.020594
233.368014,74.020594,-9882.631924,0.000000
233.368334,0.000000,-10112.460574,444.123565
233.368654,962.267725,-10112.460574,0.000000
233.368974,1406.391290,-9882.631924,222.061783
233.369294,1258.350101,-10342.289223,0.000000
233.369614,1924.535449,-10342.289223,-148.041188
233.369934,1184.329507,-10035.851024,-740.205942
233.370254,518.144159,-10265.679673,-666.185348
233.370574,370.102971,-11031.775171,-1036.288319
233.370894,-592.164754,-10418.898773,-1406.391290
233.371214,-222.061783,-10035.851024,-1776.494261
233.371534,148.041188,-10342.289223,-1258.350101
233.371854,1110.308913,-9576.193725,-1480.411884
233.372174,1184.329507,-9806.022374,-1184.329507
233.372494,1110.308913,-10265.679673,-370.102971
233.372814,1110.308913,-10189.070123,-296.082377
233.373134,370.102971,-9959.241474,0.000000
233.373454,592.164754,-10418.898773,222.061783
233.373774,518.144159,-10418.898773,370.102971
233.374094,666.185348,-9882.631924,0.000000
233.374414,1110.308913,-10342.289223,-74.020594
233.374734,666.185348,-9959.241474,296.082377
233.375054,592.164754,-10265.679673,-740.205942
233.375374,814.226536,-10112.460574,-814.226536
233.375694,296.082377,-9882.631924,-1332.370696
233.376014,1406.391290,-11568.042020,-2368.659014
233.376334,370.102971,-10418.898773,-1184.329507
233.376654,666.185348,-10342.289223,-1480.411884
233.376974,592.164754,-10189.070123,-814.226536
233.377294,1036.288319,-8733.488677,-370.102971
233.377614,592.164754,-10035.851024,-740.205942
233.377934,592.164754,-10189.070123,0.000000
233.378254,888.247130,-10189.070123,-148.041188
233.378574,444.123565,-9882.631924,0.000000
233.378894,74.020594,-10572.117872,222.061783
233.379214,666.185348,-9959.241474,-518.144159
233.379534,888.247130,-10342.289223,-222.061783
233.379854,1406.391290,-9882.631924,-962.267725
233.380174,1924.535449,-10418.898773,-1480.411884
233.380494,1258.350101,-10189.070123,-666.185348
233.380814,296.082377,-10112.460574,-814.226536
233.381134,444.123565,-10342.289223,-814.226536
233.381454,-444.123565,-8273.831378,-370.102971
233.381774,518.144159,-10112.460574,-814.226536
233.382094,962.267725,-9882.631924,-1036.288319
233.382414,296.082377,-10035.851024,-740.205942
233.382734,666.185348,-9959.241474,-814.226536
233.383054,296.082377,-10189.070123,-370.102971
233.383374,740.205942,-10342.289223,-518.144159
233.383694,444.123565,-9959.241474,-592.164754
233.384014,666.185348,-10342.289223,0.000000
233.384334,814.226536,-10189.070123,-592.164754
233.384654,888.247130,-10189.070123,-148.041188
233.384974,1332.370696,-10189.070123,-370.102971
233.385294,1184.329507,-10035.851024,-962.267725
233.385614,1406.391290,-11108.384721,-1110.308913
233.385934,518.144159,-10418.898773,-518.144159
233.386254,148.041188,-10035.851024,-1184.329507
233.386574,148.041188,-10265.679673,-814.226536
233.386894,592.164754,-9039.926876,-1110.308913
233.387214,444.123565,-9729.412825,-1480.411884
233.387534,148.041188,-10189.070123,-740.205942
233.387854,666.185348,-10801.946522,-666.185348
233.388174,592.164754,-10112.460574,-1036.288319
233.388494,1406.391290,-10418.898773,-518.144159
233.388814,740.205942,-9882.631924,-592.164754
233.389135,814.226536,-10418.898773,-222.061783
233.389455,962.267725,-10112.460574,-296.082377
233.389775,1036.288319,-9806.022374,0.000000
233.390095,592.164754,-10342.289223,0.000000
233.390415,740.205942,-10495.508323,-222.061783
233.390735,296.082377,-9882.631924,-518.144159
233.391055,666.185348,-10418.898773,-666.185348
233.391375,444.123565,-9959.241474,-962.267725
233.391695,740.205942,-10418.898773,-1184.329507
233.392015,444.123565,-10035.851024,-1332.370696
233.392335,962.267725,-9882.631924,-962.267725
233.392655,740.205942,-9959.241474,-1184.329507
233.392975,0.000000,-10265.679673,-666.185348
233.393295,444.123565,-10035.851024,-740.205942
233.393615,518.144159,-10572.117872,-148.041188
233.393935,444.123565,-9729.412825,-444.123565
233.394255,1110.308913,-10572.117872,-74.020594
233.394575,1036.288319,-9882.631924,0.000000
233.394895,1332.370696,-10418.898773,0.000000
233.395215,2294.638420,-10189.070123,-370.102971
233.395535,962.267725,-10189.070123,-370.102971
233.395855,740.205942,-10112.460574,-740.205942
233.396175,0.000000,-10112.460574,-814.226536
233.396495,-592.164754,-9652.803275,-148.041188
233.396815,370.102971,-9882.631924,-1480.411884
233.397135,0.000000,-10342.289223,-1184.329507
233.397455,518.144159,-10189.070123,-1184.329507
233.397775,2072.576638,-8656.879127,-1036.288319
233.398095,518.144159,-10189.070123,-518.144159
233.398415,148.041188,-9882.631924,-592.164754
233.398735,518.144159,-10648.727422,-74.020594
233.399055,444.123565,-10495.508323,0.000000
233.399375,592.164754,-9959.241474,222.061783
233.399695,1406.391290,-10189.070123,0.000000
233.400015,1184.329507,-9882.631924,-222.061783
233.400335,1554.432478,-10112.460574,-296.082377
233.400655,1554.432478,-10112.460574,-148.041188
233.400975,444.123565,-10342.289223,-518.144159
233.401295,74.020594,-10418.898773,-962.267725
233.401616,-518.144159,-10112.460574,-1406.391290
233.401936,0.000000,-9039.926876,-1702.473667
233.402256,74.020594,-10265.679673,-1406.391290
233.402576,592.164754,-10112.460574,-1628.453072
233.402896,1110.308913,-10418.898773,-1110.308913
233.403216,1036.288319,-11031.775171,-444.123565
233.403536,1110.308913,-10342.289223,-296.082377
233.403856,592.164754,-9882.631924,0.000000
233.404176,444.123565,-10112.460574,74.020594
233.404496,1110.308913,-8580.269578,0.000000
233.404816,888.247130,-9882.631924,0.000000
233.405136,1258.350101,-10418.898773,74.020594
233.405456,1184.329507,-9806.022374,0.000000
233.405776,962.267725,-10342.289223,-370.102971
233.406096,666.185348,-10035.851024,-222.061783
233.406416,0.000000,-9882.631924,-962.267725
233.406736,-74.020594,-10648.727422,-1258.350101
233.407056,0.000000,-9882.631924,-1776.494261
233.407376,814.226536,-9959.241474,-1258.350101
233.407696,1036.288319,-9806.022374,-1332.370696
233.408016,740.205942,-10189.070123,-888.247130
233.408336,1110.308913,-10189.070123,-888.247130
233.408656,814.226536,-9729.412825,-296.082377
233.408976,518.144159,-10342.289223,0.000000
233.409296,148.041188,-10035.851024,0.000000
233.409616,222.061783,-10342.289223,148.041188
233.409936,666.185348,-10112.460574,0.000000
233.410256,1406.391290,-10572.117872,296.082377
233.410576,1332.370696,-9806.022374,0.000000
233.410896,1480.411884,-10112.460574,-444.123565
233.411216,888.247130,-9729.412825,-888.247130
233.411536,518.144159,-9806.022374,-666.185348
233.411856,222.061783,-9959.241474,-1184.329507
233.412176,0.000000,-10189.070123,-962.267725
233.412496,74.020594,-10035.851024,-1480.411884
233.412816,222.061783,-10878.556072,-222.061783
233.413136,0.000000,-10265.679673,-814.226536
233.413456,814.226536,-10265.679673,-962.267725
233.413776,962.267725,-10035.851024,-370.102971
233.414096,888.247130,-11338.213370,-666.185348
233.414417,1184.329507,-10035.851024,-518.144159
233.414737,666.185348,-10035.851024,0.000000
233.415057,888.247130,-10342.289223,74.020594
233.415377,666.185348,-9959.241474,-296.082377
233.415697,888.247130,-9806.022374,-148.041188
233.416017,740.205942,-9806.022374,-592.164754
233.416337,666.185348,-10189.070123,-444.123565
233.416657,740.205942,-10035.851024,-1110.308913
233.416977,740.205942,-9959.241474,-740.205942
233.417297,222.061783,-10035.851024,-1110.308913
233.417617,444.123565,-10418.898773,-814.226536
233.417937,666.185348,-10112.460574,-1258.350101
233.418257,-370.102971,-9193.145976,0.000000
233.418577,222.061783,-10265.679673,-370.102971
233.418897,814.226536,-10265.679673,-592.164754
233.419217,888.247130,-10112.460574,-222.061783
233.419537,1850.514855,-11338.213370,-814.226536
233.419857,888.247130,-10035.851024,-444.123565
233.420177,518.144159,-10189.070123,0.000000
233.420497,888.247130,-10112.460574,-148.041188
233.420817,592.164754,-10725.336972,-148.041188
233.421137,740.205942,-10418.898773,-370.102971
233.421457,888.247130,-9729.412825,-962.267725
233.421777,740.205942,-10112.460574,-518.144159
233.422097,518.144159,-10189.070123,-1184.329507
233.422417,370.102971,-10112.460574,-1110.308913
233.422737,74.020594,-10035.851024,-1184.329507
233.423057,0.000000,-10342.289223,-1110.308913
233.423377,518.144159,-10418.898773,-814.226536
233.423697,666.185348,-10725.336972,-814.226536
233.424017,888.247130,-10112.460574,-296.082377
233.424337,1110.308913,-10265.679673,-444.123565
233.424657,888.247130,-9959.241474,-222.061783
233.424977,1480.411884,-9499.584175,-592.164754
233.425297,962.267725,-10189.070123,0.000000
233.425617,370.102971,-10189.070123,0.000000
233.425937,518.144159,-10342.289223,-444.123565
233.426257,148.041188,-11338.213370,-518.144159
233.426577,518.144159,-10418.898773,-1110.308913
233.426898,518.144159,-10189.070123,-814.226536
233.427218,1036.288319,-10342.289223,-1110.308913
233.427538,592.164754,-9882.631924,-1406.391290
233.427858,296.082377,-9806.022374,-666.185348
233.428178,222.061783,-10418.898773,-1110.308913
233.428498,0.000000,-9882.631924,-740.205942
233.428818,518.144159,-10495.508323,-518.144159
233.429138,740.205942,-10112.460574,-592.164754
233.429458,1258.350101,-10342.289223,-222.061783
233.429778,1184.329507,-9882.631924,0.000000
233.430098,1406.391290,-10265.679673,0.000000
233.430418,1184.329507,-10725.336972,-222.061783
233.430738,962.267725,-9729.412825,-592.164754
233.431058,666.185348,-10342.289223,-222.061783
233.431378,222.061783,-9882.631924,-888.247130
233.431698,0.000000,-10265.679673,-666.185348
233.432018,148.041188,-10112.460574,-1480.411884
233.432338,296.082377,-10418.898773,-1110.308913
233.432658,814.226536,-9959.241474,-1480.411884
233.432978,888.247130,-9882.631924,-1406.391290
233.433298,592.164754,-10495.508323,-666.185348
233.433618,592.164754,-10189.070123,-740.205942
233.433938,0.000000,-9806.022374,-666.185348
233.434258,370.102971,-10265.679673,-74.020594
233.434578,296.082377,-10112.460574,370.102971
233.434898,1036.288319,-10035.851024,0.000000
233.435218,1258.350101,-10112.460574,222.061783
233.435538,1554.432478,-9882.631924,0.000000
233.435858,2294.638420,-10648.727422,-666.185348
233.436178,1184.329507,-9806.022374,-666.185348
233.436498,888.247130,-10265.679673,-518.144159
233.436818,148.041188,-9806.022374,-1036.288319
233.437138,0.000000,-10495.508323,-1110.308913
233.437458,-148.041188,-10035.851024,-1554.432478
233.437778,296.082377,-10418.898773,-1406.391290
233.438098,592.164754,-9806.022374,-1554.432478
233.438418,888.247130,-10418.898773,-1258.350101
233.438738,962.267725,-10265.679673,-814.226536
233.439058,444.123565,-10189.070123,-592.164754
233.439378,296.082377,-9959.241474,0.000000
233.439699,888.247130,-9729.412825,-518.144159
233.440019,222.061783,-9499.584175,370.102971
233.440339,1184.329507,-9882.631924,222.061783
233.440659,1776.494261,-9959.241474,0.000000
233.440979,1480.411884,-10265.679673,0.000000
233.441299,1554.432478,-9959.241474,-592.164754
233.441619,0.000000,-10265.679673,-518.144159
233.441939,-296.082377,-9882.631924,-1184.329507
233.442259,-370.102971,-10342.289223,-1184.329507
233.442579,296.082377,-9729.412825,-1258.350101
233.442899,518.144159,-10112.460574,-1258.350101
233.443219,1480.411884,-10418.898773,-1110.308913
233.443539,1332.370696,-10265.679673,-814.226536
233.443859,1036.288319,-10265.679673,-592.164754
233.444179,1036.288319,-9576.193725,-370.102971
233.444499,592.164754,-10418.898773,0.000000
233.444819,222.061783,-10418.898773,0.000000
233.445139,222.061783,-10418.898773,148.041188
233.445459,592.164754,-9729.412825,518.144159
233.445779,1184.329507,-9959.241474,0.000000
233.446099,1258.350101,-10265.679673,-296.082377
233.446419,1406.391290,-10342.289223,-666.185348
233.446739,1184.329507,-11491.432470,-1332.370696
233.447059,518.144159,-9959.241474,-1036.288319
233.447379,518.144159,-10342.289223,-1480.411884
233.447699,370.102971,-10342.289223,-1480.411884
233.448019,518.144159,-9806.022374,-1258.350101
233.448339,1110.308913,-10418.898773,-1036.288319
233.448659,740.205942,-10112.460574,-666.185348
233.448979,296.082377,-10112.460574,-370.102971
233.449299,296.082377,-9882.631924,-370.102971
233.449619,814.226536,-10418.898773,-74.020594
233.449939,222.061783,-9882.631924,0.000000
233.450259,888.247130,-9806.022374,0.000000
233.450579,1258.350101,-10265.679673,-148.041188
233.450899,2146.597232,-9422.974625,-666.185348
233.451219,1480.411884,-9882.631924,-370.102971
233.451539,962.267725,-9882.631924,-518.144159
233.451859,740.205942,-10189.070123,-666.185348
233.452179,592.164754,-9729.412825,-1184.329507
233.452500,222.061783,-9882.631924,-1184.329507
233.452820,0.000000,-10189.070123,-1036.288319
233.453140,296.082377,-10342.289223,-962.267725
233.453460,592.164754,-10112.460574,-740.205942
233.453780,296.082377,-10189.070123,-1184.329507
233.454100,444.123565,-10418.898773,-370.102971
233.454420,444.123565,-10035.851024,-518.144159
233.454740,666.185348,-9882.631924,-370.102971
233.455060,888.247130,-9959.241474,-370.102971
233.455380,1258.350101,-10189.070123,-222.061783
233.455700,888.247130,-10725.336972,0.000000
233.456020,1110.308913,-10112.460574,-444.123565
233.456340,1998.556043,-10342.289223,-1036.288319
233.456660,592.164754,-9959.241474,-222.061783
233.456980,814.226536,-10112.460574,-296.082377
233.457300,518.144159,-10342.289223,-222.061783
233.457620,-888.247130,-9576.193725,222.061783
233.457940,518.144159,-10342.289223,-814.226536
233.458260,148.041188,-10342.289223,-814.226536
233.458580,296.082377,-10035.851024,-1332.370696
233.458900,518.144159,-9806.022374,-1110.308913
233.459220,814.226536,-10801.946522,-814.226536
233.459540,888.247130,-10189.070123,-814.226536
233.459860,1110.308913,-10112.460574,-592.164754
233.460180,740.205942,-9882.631924,-592.164754
233.460500,888.247130,-9806.022374,0.000000
233.460820,1258.350101,-10342.289223,74.020594
233.461140,1110.308913,-9882.631924,0.000000
233.461460,740.205942,-10189.070123,0.000000
233.461780,296.082377,-8886.707777,74.020594
233.462100,592.164754,-10342.289223,-370.102971
233.462420,222.061783,-9806.022374,-740.205942
233.462740,222.061783,-10342.289223,-592.164754
233.463060,0.000000,-11797.870669,-1406.391290
233.463380,518.144159,-10189.070123,-1184.329507
233.463700,296.082377,-10342.289223,-1110.308913
233.464020,370.102971,-10189.070123,-1258.350101
233.464340,518.144159,-8197.221829,-1332.370696
233.464660,888.247130,-10265.679673,-444.123565
233.464981,592.164754,-9959.241474,-592.164754
233.465301,1110.308913,-10572.117872,-296.082377
233.465621,1036.288319,-10112.460574,0.000000
233.465941,666.185348,-10112.460574,0.000000
233.466261,1406.391290,-9806.022374,74.020594
233.466581,888.247130,-9652.803275,0.000000
233.466901,888.247130,-10265.679673,-74.020594
233.467221,740.205942,-10112.460574,-814.226536
233.467541,74.020594,-10112.460574,-1110.308913
233.467861,222.061783,-10418.898773,-1110.308913
233.468181,296.082377,-9652.803275,-1406.391290
233.468501,-518.144159,-10189.070123,-592.164754
233.468821,740.205942,-10418.898773,-1036.288319
233.469141,666.185348,-10265.679673,-888.247130
233.469461,444.123565,-10189.070123,-518.144159
233.469781,666.185348,-10725.336972,-370.102971
233.470101,740.205942,-10112.460574,-148.041188
233.470421,666.185348,-10035.851024,0.000000
233.470741,1258.350101,-10265.679673,-74.020594
233.471061,1258.350101,-9806.022374,-592.164754
233.471381,1110.308913,-10265.679673,0.000000
233.471701,1110.308913,-10418.898773,-444.123565
233.472021,740.205942,-10035.851024,-518.144159
233.472341,666.185348,-10418.898773,-666.185348
233.472661,592.164754,-9729.412825,-962.267725
233.472981,0.000000,-9882.631924,-1480.411884
233.473301,148.041188,-10112.460574,-1036.288319
233.473621,370.102971,-10112.460574,-1184.329507
233.473941,666.185348,-11108.384721,-1110.308913
233.474261,814.226536,-10418.898773,-814.226536
233.474581,740.205942,-9959.241474,-740.205942
233.474901,814.226536,-10112.460574,-148.041188
233.475221,814.226536,-10189.070123,-296.082377
233.475541,592.164754,-9729.412825,0.000000
233.475861,1258.350101,-10112.460574,0.000000
233.476181,1258.350101,-10035.851024,0.000000
233.476501,814.226536,-10112.460574,0.000000
233.476822,1332.370696,-10189.070123,-592.164754
233.477142,444.123565,-9806.022374,-666.185348
233.477462,370.102971,-10265.679673,-666.185348
233.477782,222.061783,-10189.070123,-1110.308913
233.478102,0.000000,-10648.727422,-592.164754
233.478422,518.144159,-10572.117872,-1184.329507
233.478742,740.205942,-10035.851024,-962.267725
233.479062,1036.288319,-10265.679673,-740.205942
233.479382,518.144159,-10495.508323,-592.164754
233.479702,666.185348,-10418.898773,-370.102971
233.480022,814.226536,-10035.851024,-592.164754
233.480342,518.144159,-10418.898773,0.000000
233.480662,370.102971,-9882.631924,-296.082377
233.480982,740.205942,-10189.070123,-592.164754
233.481303,962.267725,-10265.679673,-222.061783
233.481623,1332.370696,-10265.679673,-444.123565
233.481943,962.267725,-9806.022374,-666.185348
233.482263,666.185348,-9806.022374,-370.102971
233.482583,888.247130,-10035.851024,-444.123565
233.482903,222.061783,-9882.631924,-740.205942
233.483223,518.144159,-10342.289223,-1036.288319
233.483543,1036.288319,-10495.508323,-1480.411884
233.483863,444.123565,-10418.898773,-962.267725
233.484183,296.082377,-10112.460574,-1184.329507
233.484503,0.000000,-10112.460574,-814.226536
233.484823,592.164754,-9959.241474,-962.267725
233.485143,592.164754,-10035.851024,-740.205942
233.485463,740.205942,-10189.070123,-296.082377
233.485783,1110.308913,-10189.070123,-444.123565
233.486104,1184.329507,-9882.631924,0.000000
233.486424,1258.350101,-10418.898773,-148.041188
233.486744,888.247130,-9882.631924,0.000000
233.487064,888.247130,-10189.070123,-148.041188
233.487384,814.226536,-10189.070123,-518.144159
233.487704,666.185348,-10189.070123,-962.267725
233.488024,148.041188,-10035.851024,-962.267725
233.488344,444.123565,-10265.679673,-962.267725
233.488664,148.041188,-9959.241474,-1406.391290
233.488984,-148.041188,-10189.070123,-1332.370696
233.489304,74.020594,-10418.898773,-666.185348
233.489624,222.061783,-10112.460574,-1036.288319
233.489944,740.205942,-10112.460574,-518.144159
233.490264,1924.535449,-10648.727422,-518.144159
233.490585,1036.288319,-10189.070123,-370.102971
233.490905,1110.308913,-10265.679673,-148.041188
233.491225,740.205942,-10112.460574,148.041188
233.491545,740.205942,-10189.070123,-296.082377
233.491865,296.082377,-9806.022374,0.000000
233.492185,444.123565,-10112.460574,-518.144159
233.492505,296.082377,-10035.851024,-740.205942
233.492825,518.144159,-10418.898773,-592.164754
233.493145,814.226536,-10725.336972,-740.205942
233.493465,962.267725,-10572.117872,-962.267725
233.493785,592.164754,-10189.070123,-1258.350101
233.494105,814.226536,-10342.289223,-1036.288319
233.494425,0.000000,-9193.145976,-296.082377
233.494745,148.041188,-10342.289223,-370.102971
233.495066,666.185348,-10342.289223,-518.144159
233.495386,370.102971,-10189.070123,-222.061783
233.495706,1036.288319,-11338.213370,-1184.329507
233.496026,962.267725,-9882.631924,0.000000
233.496346,1554.432478,-10342.289223,-74.020594
233.496666,1258.350101,-10112.460574,74.020594
233.496986,962.267725,-9959.241474,-592.164754
233.497306,370.102971,-9959.241474,-222.061783
233.497626,148.041188,-10035.851024,-370.102971
233.497946,74.020594,-10265.679673,-1184.329507
233.498266,444.123565,-10189.070123,-1110.308913
233.498586,962.267725,-10418.898773,-1480.411884
233.498906,444.123565,-10189.070123,-1184.329507
233.499226,518.144159,-10342.289223,-1036.288319
233.499546,0.000000,-10112.460574,-518.144159
233.499867,518.144159,-10035.851024,-888.247130
233.500187,444.123565,-10265.679673,-296.082377
233.500507,666.185348,-9959.241474,-592.164754
233.500827,1258.350101,-10265.679673,0.000000
233.501147,2146.597232,-10495.508323,0.000000
233.501467,1332.370696,-9806.022374,0.000000
233.501787,1406.391290,-10418.898773,0.000000
233.502107,1110.308913,-10112.460574,-296.082377
233.502427,222.061783,-10112.460574,-296.082377
233.502747,74.020594,-10265.679673,-1110.308913
233.503067,-222.061783,-10265.679673,-962.267725
233.503387,0.000000,-9882.631924,-1480.411884
233.503707,74.020594,-10189.070123,-1332.370696
233.504027,370.102971,-10495.508323,-962.267725
233.504348,1110.308913,-10035.851024,-1184.329507
233.504668,518.144159,-10189.070123,-740.205942
233.504988,740.205942,-10342.289223,-518.144159
233.505308,1406.391290,-10342.289223,-592.164754
233.505628,592.164754,-10342.289223,74.020594
233.505948,962.267725,-10189.070123,-148.041188
233.506268,888.247130,-9959.241474,296.082377
233.506588,814.226536,-9882.631924,0.000000
233.506908,1184.329507,-10112.460574,-296.082377
233.507228,1110.308913,-10265.679673,-296.082377
233.507548,592.164754,-9959.241474,-814.226536
233.507868,74.020594,-10342.289223,-814.226536
233.508188,296.082377,-10418.898773,-962.267725
233.508508,0.000000,-10189.070123,-1554.432478
233.508829,222.061783,-10342.289223,-1184.329507
233.509149,370.102971,-10035.851024,-1258.350101
233.509469,1332.370696,-10495.508323,-1332.370696
233.509789,444.123565,-10035.851024,-666.185348
233.510109,962.267725,-10418.898773,-592.164754
233.510429,444.123565,-10265.679673,-370.102971
233.510749,-370.102971,-11338.213370,444.123565
233.511069,666.185348,-10495.508323,0.000000
233.511389,666.185348,-10035.851024,0.000000
233.511709,1406.391290,-10342.289223,-74.020594
233.512029,518.144159,-8273.831378,-74.020594
233.512349,1406.391290,-10418.898773,-518.144159
233.512669,740.205942,-9806.022374,-814.226536
233.512989,296.082377,-10418.898773,-740.205942
233.513309,0.000000,-9806.022374,-1332.370696
233.513630,148.041188,-10112.460574,-1258.350101
233.513950,814.226536,-10495.508323,-1258.350101
233.514270,814.226536,-9959.241474,-1184.329507
233.514590,518.144159,-10265.679673,-666.185348
233.514910,518.144159,-10572.117872,-888.247130
233.515230,370.102971,-10112.460574,-296.082377
233.515550,592.164754,-10112.460574,-444.123565
233.515870,740.205942,-10112.460574,-222.061783
233.516190,888.247130,-11031.775171,296.082377
233.516510,740.205942,-10418.898773,0.000000
233.516830,888.247130,-9729.412825,-518.144159
233.517150,1406.391290,-10112.460574,-148.041188
233.517470,814.226536,-8656.879127,-222.061783
233.517790,518.144159,-10112.460574,-740.205942
233.518111,296.082377,-10418.898773,-518.144159
233.518431,0.000000,-10265.679673,-1110.308913
233.518751,222.061783,-10189.070123,-1406.391290
233.519071,222.061783,-10265.679673,-1258.350101
233.519391,592.164754,-10035.851024,-1332.370696
233.519711,444.123565,-10495.508323,-814.226536
233.520031,370.102971,-10265.679673,-888.247130
233.520351,592.164754,-10112.460574,0.000000
233.520671,888.247130,-9806.022374,-592.164754
233.520991,740.205942,-10189.070123,-222.061783
233.521311,962.267725,-10418.898773,-148.041188
233.521631,222.061783,-10035.851024,74.020594
233.521951,888.247130,-10342.289223,-74.020594
233.522271,444.123565,-9882.631924,-518.144159
233.522591,740.205942,-9806.022374,-74.020594
233.522912,518.144159,-10418.898773,0.000000
233.523232,814.226536,-10112.460574,-518.144159
233.523552,370.102971,-9729.412825,-962.267725
233.523872,518.144159,-10112.460574,-666.185348
233.524192,296.082377,-9882.631924,-1184.329507
233.524512,370.102971,-10342.289223,-962.267725
233.524832,962.267725,-10418.898773,-962.267725
233.525152,962.267725,-9882.631924,-1110.308913
233.525472,888.247130,-10189.070123,-370.102971
233.525792,1110.308913,-10418.898773,-222.061783
233.526112,740.205942,-9882.631924,-740.205942
233.526432,296.082377,-10189.070123,-74.020594
233.526752,518.144159,-9882.631924,-444.123565
233.527072,1702.473667,-10265.679673,-1406.391290
233.527393,296.082377,-10495.508323,-296.082377
233.527713,518.144159,-10189.070123,-592.164754
233.528033,666.185348,-9882.631924,-962.267725
233.528353,666.185348,-8503.660028,74.020594
233.528673,592.164754,-10189.070123,-518.144159
233.528993,1110.308913,-10495.508323,-814.226536
233.529313,592.164754,-9729.412825,-962.267725
233.529633,518.144159,-10342.289223,-518.144159
233.529953,592.164754,-10265.679673,-592.164754
233.530273,0.000000,-9959.241474,-814.226536
233.530593,518.144159,-10112.460574,-518.144159
233.530913,740.205942,-9806.022374,-888.247130
233.531233,296.082377,-9806.022374,-296.082377
233.531553,518.144159,-9882.631924,-888.247130
233.531874,740.205942,-10189.070123,-518.144159
233.532194,1850.514855,-10342.289223,-444.123565
233.532514,1776.494261,-10112.460574,-888.247130
233.532834,740.205942,-10035.851024,-592.164754
233.533154,370.102971,-10265.679673,-222.061783
233.533474,370.102971,-9882.631924,-592.164754
233.533794,74.020594,-10112.460574,0.000000
233.534114,518.144159,-10112.460574,-666.185348
233.534434,740.205942,-10495.508323,-1184.329507
233.534754,148.041188,-10035.851024,-814.226536
233.535074,370.102971,-9193.145976,-814.226536
233.535394,0.000000,-10035.851024,-666.185348
233.535714,370.102971,-10265.679673,-592.164754
233.536034,1036.288319,-10035.851024,-814.226536
233.536354,888.247130,-10035.851024,-296.082377
233.536675,1258.350101,-10725.336972,0.000000
233.536995,1702.473667,-10189.070123,-296.082377
233.537315,1036.288319,-9882.631924,0.000000
233.537635,1258.350101,-10265.679673,-148.041188
233.537955,666.185348,-9269.755526,-518.144159
233.538275,222.061783,-10418.898773,-518.144159
233.538595,0.000000,-9882.631924,-962.267725
233.538915,222.061783,-10725.336972,-962.267725
233.539235,0.000000,-8810.098227,-1110.308913
233.539555,962.267725,-10112.460574,-1258.350101
233.539875,740.205942,-9806.022374,-1406.391290
233.540195,518.144159,-10035.851024,-814.226536
233.540515,296.082377,-9882.631924,-1110.308913
233.540835,518.144159,-10112.460574,-222.061783
233.541156,592.164754,-9729.412825,-518.144159
233.541476,740.205942,-10112.460574,74.020594
233.541796,1406.391290,-10035.851024,0.000000
233.542116,1628.453072,-10035.851024,0.000000
233.542436,1110.308913,-10265.679673,148.041188
233.542756,962.267725,-10035.851024,0.000000
233.543076,296.082377,-10035.851024,-370.102971
233.543396,518.144159,-9652.803275,-296.082377
233.543716,74.020594,-9959.241474,-1036.288319
233.544036,0.000000,-10189.070123,-1258.350101
233.544356,518.144159,-10189.070123,-1406.391290
233.544676,888.247130,-9576.193725,-1184.329507
233.544996,1036.288319,-9882.631924,-1332.370696
233.545316,740.205942,-10418.898773,-962.267725
233.545637,370.102971,-10112.460574,-1110.308913
233.545957,592.164754,-10342.289223,-444.123565
233.546277,518.144159,-10648.727422,-444.123565
233.546597,370.102971,-10112.460574,0.000000
233.546917,962.267725,-10342.289223,-74.020594
233.547237,888.247130,-10112.460574,0.000000
233.547557,1110.308913,-9806.022374,-222.061783
233.547877,1258.350101,-9806.022374,-74.020594
233.548197,814.226536,-10189.070123,-444.123565
233.548517,0.000000,-9882.631924,-518.144159
233.548837,1406.391290,-10725.336972,-1776.494261
233.549157,74.020594,-9882.631924,-1332.370696
233.549477,444.123565,-10418.898773,-962.267725
233.549797,1036.288319,-9882.631924,-1554.432478
233.550117,962.267725,-8733.488677,0.000000
233.550438,1110.308913,-10495.508323,-666.185348
233.550758,148.041188,-10495.508323,-666.185348
233.551078,444.123565,-10418.898773,-444.123565
233.551398,74.020594,-10878.556072,0.000000
233.551718,740.205942,-9882.631924,-592.164754
233.552038,888.247130,-10112.460574,-148.041188
233.552358,1554.432478,-9882.631924,-296.082377
233.552678,1554.432478,-10112.460574,-74.020594
233.552998,1554.432478,-9806.022374,0.000000
233.553318,1184.329507,-9882.631924,-814.226536
233.553638,444.123565,-10572.117872,-592.164754
233.553958,-296.082377,-10189.070123,-1036.288319
233.554278,-666.185348,-11491.432470,-1332.370696
233.554598,0.000000,-10265.679673,-1332.370696
233.554919,666.185348,-10189.070123,-1258.350101
233.555239,740.205942,-10189.070123,-1332.370696
233.555559,962.267725,-8044.002729,-1110.308913
233.555879,962.267725,-9806.022374,-814.226536
233.556199,1036.288319,-10572.117872,-296.082377
233.556519,962.267725,-10572.117872,-74.020594
233.556839,740.205942,-9729.412825,0.000000
233.557159,1036.288319,-10725.336972,0.000000
233.557479,888.247130,-10189.070123,-444.123565
233.557799,666.185348,-9806.022374,0.000000
233.558119,444.123565,-10112.460574,-74.020594
233.558439,444.123565,-9806.022374,-518.144159
233.558759,518.144159,-10189.070123,-518.144159
233.559079,370.102971,-10035.851024,-1110.308913
233.559400,518.144159,-10189.070123,-1184.329507
233.559720,518.144159,-10418.898773,-1258.350101
233.560040,592.164754,-10112.460574,-1110.308913
233.560360,444.123565,-10112.460574,-814.226536
233.560680,592.164754,-10418.898773,-962.267725
233.561000,518.144159,-10801.946522,-148.041188
233.561320,296.082377,-10265.679673,-74.020594
233.561640,370.102971,-10112.460574,-74.020594
233.561960,666.185348,-9882.631924,-592.164754
233.562280,666.185348,-10418.898773,-148.041188
233.562600,1110.308913,-10035.851024,0.000000
233.562920,1036.288319,-10495.508323,-74.020594
233.563240,1036.288319,-10342.289223,-518.144159
233.563560,444.123565,-10265.679673,-370.102971
233.563880,444.123565,-9959.241474,-1258.350101
233.564201,888.247130,-10265.679673,-814.226536
233.564521,888.247130,-10035.851024,-1258.350101
233.564841,592.164754,-9882.631924,-1480.411884
233.565161,666.185348,-10725.336972,-74.020594
233.565481,296.082377,-10725.336972,-666.185348
233.565801,0.000000,-10112.460574,-370.102971
233.566121,0.000000,-9959.241474,-740.205942
233.566441,814.226536,-10572.117872,-592.164754
233.566761,666.185348,-10189.070123,-592.164754
233.567081,1184.329507,-9882.631924,-444.123565
233.567401,1258.350101,-10112.460574,-148.041188
233.567721,1702.473667,-10418.898773,-296.082377
233.568041,1258.350101,-9882.631924,-148.041188
233.568361,1036.288319,-9959.241474,-370.102971
233.568682,518.144159,-9959.241474,-592.164754
233.569002,222.061783,-10495.508323,-518.144159
233.569322,-518.144159,-10342.289223,-444.123565
233.569642,0.000000,-10112.460574,-1036.288319
233.569962,518.144159,-10418.898773,-962.267725
233.570282,444.123565,-9959.241474,-1258.350101
233.570602,370.102971,-9806.022374,-370.102971
233.570922,592.164754,-9959.241474,-888.247130
233.571242,740.205942,-10342.289223,-518.144159
233.571562,370.102971,-10189.070123,-666.185348
233.571882,1406.391290,-9346.365076,-962.267725
233.572202,814.226536,-10418.898773,-296.082377
233.572522,666.185348,-10265.679673,-74.020594
233.572842,1110.308913,-10342.289223,-296.082377
233.573163,962.267725,-9882.631924,-444.123565
233.573483,1554.432478,-9959.241474,-814.226536
233.573803,1406.391290,-10418.898773,-444.123565
233.574123,592.164754,-10035.851024,-888.247130
233.574443,222.061783,-10418.898773,-444.123565
233.574763,74.020594,-9806.022374,-518.144159
233.575083,0.000000,-10035.851024,-1480.411884
233.575403,814.226536,-10495.508323,-962.267725
233.575723,740.205942,-9882.631924,-666.185348
233.576043,1480.411884,-10955.165621,-1184.329507
233.576363,962.267725,-10418.898773,-444.123565
233.576683,518.144159,-10418.898773,-148.041188
233.577003,0.000000,-10265.679673,-370.102971
233.577324,-222.061783,-9039.926876,740.205942
233.577644,444.123565,-9806.022374,0.000000
233.577964,1110.308913,-10648.727422,-74.020594
233.578284,1110.308913,-10112.460574,-148.041188
233.578604,1480.411884,-9882.631924,-666.185348
233.578924,888.247130,-10035.851024,-444.123565
233.579244,1036.288319,-10265.679673,-666.185348
233.579564,296.082377,-10112.460574,-888.247130
233.579884,-444.123565,-9882.631924,-1184.329507
233.580204,74.020594,-10418.898773,-666.185348
233.580524,666.185348,-10035.851024,-888.247130
233.580844,888.247130,-10418.898773,-666.185348
233.581165,1110.308913,-10418.898773,-518.144159
233.581485,814.226536,-10035.851024,-370.102971
233.581805,370.102971,-9882.631924,-296.082377
233.582125,518.144159,-10418.898773,-148.041188
233.582445,370.102971,-10265.679673,-222.061783
233.582765,666.185348,-10725.336972,-666.185348
233.583085,1332.370696,-10495.508323,-370.102971
233.583405,1406.391290,-10342.289223,-148.041188
233.583725,1258.350101,-10189.070123,-444.123565
233.584045,1110.308913,-10418.898773,-518.144159
233.584365,444.123565,-9806.022374,-148.041188
233.584685,0.000000,-10035.851024,-666.185348
233.585006,0.000000,-10112.460574,-666.185348
233.585326,370.102971,-9959.241474,-888.247130
233.585646,962.267725,-10725.336972,-1110.308913
233.585966,666.185348,-10495.508323,-666.185348
233.586286,1110.308913,-10342.289223,-666.185348
233.586606,888.247130,-10189.070123,-1110.308913
233.586926,2072.576638,-9806.022374,-1036.288319
233.587246,814.226536,-10112.460574,-518.144159
233.587566,444.123565,-10342.289223,-444.123565
233.587886,296.082377,-10342.289223,-444.123565
233.588206,0.000000,-8963.317327,148.041188
233.588527,1110.308913,-10342.289223,-74.020594
233.588847,1406.391290,-10265.679673,-148.041188
233.589167,1036.288319,-9959.241474,-370.102971
233.589487,1258.350101,-9882.631924,-592.164754
233.589807,962.267725,-10112.460574,-592.164754
233.590127,0.000000,-9959.241474,-962.267725
233.590447,148.041188,-10035.851024,-1036.288319
233.590767,74.020594,-10418.898773,-666.185348
233.591087,296.082377,-10495.508323,-740.205942
233.591407,814.226536,-10418.898773,-814.226536
233.591727,444.123565,-10035.851024,-666.185348
233.592047,1036.288319,-9882.631924,-962.267725
233.592368,1406.391290,-10495.508323,-1036.288319
233.592688,962.267725,-9959.241474,-666.185348
233.593008,740.205942,-10418.898773,-74.020594
233.593328,740.205942,-9652.803275,-740.205942
233.593648,1406.391290,-8580.269578,1332.370696
233.593968,370.102971,-9959.241474,-148.041188
233.594288,888.247130,-10112.460574,-222.061783
233.594608,518.144159,-9806.022374,-740.205942
233.594928,518.144159,-11261.603821,-666.185348
233.595248,148.041188,-10418.898773,-740.205942
233.595568,0.000000,-10189.070123,-1036.288319
233.595889,296.082377,-9882.631924,-1036.288319
233.596209,592.164754,-9882.631924,-962.267725
233.596529,1332.370696,-10495.508323,-1036.288319
233.596849,814.226536,-10035.851024,-888.247130
233.597169,592.164754,-9806.022374,-592.164754
233.597489,962.267725,-10265.679673,-370.102971
233.597809,222.061783,-9652.803275,-148.041188
233.598129,148.041188,-9729.412825,0.000000
233.598449,518.144159,-10418.898773,-148.041188
233.598769,592.164754,-9959.241474,-148.041188
233.599089,1184.329507,-11721.261119,-962.267725
233.599409,814.226536,-10112.460574,-222.061783
233.599730,814.226536,-9806.022374,-518.144159
233.600050,592.164754,-10265.679673,-962.267725
233.600370,370.102971,-9039.926876,-1184.329507
233.600690,444.123565,-10112.460574,-1184.329507
233.601010,296.082377,-10112.460574,-814.226536
233.601330,888.247130,-10572.117872,-962.267725
233.601650,666.185348,-10342.289223,-666.185348
233.601970,592.164754,-10189.070123,-592.164754
233.602290,518.144159,-10495.508323,-74.020594
233.602610,444.123565,-10418.898773,-74.020594
233.602930,592.164754,-10035.851024,-296.082377
233.603250,814.226536,-9269.755526,148.041188
233.603571,1110.308913,-10418.898773,-74.020594
233.603891,1110.308913,-10035.851024,-74.020594
233.604211,1332.370696,-10572.117872,-370.102971
233.604531,888.247130,-10648.727422,-518.144159
233.604851,222.061783,-10648.727422,-518.144159
233.605171,148.041188,-10189.070123,-1110.308913
233.605491,0.000000,-10112.460574,-962.267725
233.605811,0.000000,-10342.289223,-1332.370696
233.606131,740.205942,-9422.974625,-1184.329507
233.606451,1036.288319,-10112.460574,-814.226536
233.606771,592.164754,-10035.851024,-962.267725
233.607092,370.102971,-9959.241474,-1036.288319
233.607412,222.061783,-10801.946522,-222.061783
233.607732,518.144159,-10572.117872,0.000000
233.608052,814.226536,-10265.679673,0.000000
233.608372,888.247130,-10112.460574,-148.041188
233.608692,296.082377,-10035.851024,296.082377
233.609012,814.226536,-10189.070123,0.000000
233.609332,1258.350101,-10112.460574,-148.041188
233.609652,1184.329507,-9959.241474,-370.102971
233.609972,1702.473667,-9039.926876,0.000000
233.610292,888.247130,-9882.631924,-962.267725
233.610612,296.082377,-10342.289223,-1036.288319
233.610933,518.144159,-10035.851024,-1480.411884
233.611253,814.226536,-9882.631924,-1184.329507
233.611573,296.082377,-10189.070123,-1036.288319
233.611893,370.102971,-10189.070123,-1110.308913
233.612213,518.144159,-9806.022374,-814.226536
233.612533,222.061783,-10035.851024,-592.164754
233.612853,0.000000,-9806.022374,0.000000
233.613173,518.144159,-10112.460574,-296.082377
233.613493,888.247130,-10035.851024,-518.144159
233.613813,1036.288319,-9882.631924,0.000000
233.614133,2294.638420,-10801.946522,-888.247130
233.614453,1776.494261,-10495.508323,-74.020594
233.614774,1036.288319,-10495.508323,-74.020594
233.615094,888.247130,-10342.289223,-370.102971
233.615414,-74.020594,-11261.603821,-444.123565
233.615734,0.000000,-10418.898773,-666.185348
233.616054,0.000000,-9959.241474,-1036.288319
233.616374,74.020594,-9959.241474,-1184.329507
233.616694,814.226536,-8810.098227,-1110.308913
233.617014,1332.370696,-9806.022374,-1184.329507
233.617334,1036.288319,-10572.117872,-666.185348
233.617654,370.102971,-10418.898773,-444.123565
233.617974,222.061783,-9959.241474,-296.082377
233.618295,74.020594,-10112.460574,-74.020594
233.618615,370.102971,-10265.679673,-444.123565
233.618935,1406.391290,-10035.851024,-296.082377
233.619255,1184.329507,-10035.851024,-370.102971
233.619575,1036.288319,-10189.070123,370.102971
233.619895,888.247130,-10418.898773,-74.020594
233.620215,222.061783,-10112.460574,-296.082377
233.620535,74.020594,-10418.898773,-148.041188
233.620855,0.000000,-9806.022374,-370.102971
233.621175,0.000000,-9959.241474,-1036.288319
233.621495,296.082377,-10342.289223,-962.267725
233.621815,1258.350101,-9882.631924,-1184.329507
233.622136,1110.308913,-10112.460574,-1036.288319
233.622456,962.267725,-10189.070123,-592.164754
233.622776,814.226536,-9882.631924,-888.247130
233.623096,518.144159,-10418.898773,-296.082377
233.623416,370.102971,-10342.289223,-148.041188
233.623736,296.082377,-10572.117872,-518.144159
233.624056,1110.308913,-10418.898773,-74.020594
233.624376,888.247130,-9959.241474,0.000000
233.624696,1332.370696,-10189.070123,0.000000
233.625016,962.267725,-9499.584175,-444.123565
233.625336,1036.288319,-9882.631924,-888.247130
233.625657,740.205942,-9959.241474,-1036.288319
233.625977,296.082377,-10648.727422,-888.247130
233.626297,0.000000,-10725.336972,-1776.494261
233.626617,0.000000,-10265.679673,-1258.350101
233.626937,962.267725,-10189.070123,-1184.329507
233.627257,1110.308913,-10112.460574,-962.267725
233.627577,518.144159,-10112.460574,-666.185348
233.627897,444.123565,-9882.631924,-518.144159
233.628217,814.226536,-10725.336972,-222.061783
233.628537,740.205942,-10342.289223,-74.020594
233.628857,592.164754,-9806.022374,0.000000
233.629177,1184.329507,-10035.851024,0.000000
233.629498,1258.350101,-10112.460574,0.000000
233.629818,1184.329507,-9882.631924,-518.144159
233.630138,1332.370696,-10112.460574,-296.082377
233.630458,592.164754,-10265.679673,-1036.288319
233.630778,444.123565,-10418.898773,-592.164754
233.631098,0.000000,-10342.289223,-740.205942
233.631418,-296.082377,-9882.631924,-1480.411884
233.631738,814.226536,-8886.707777,-740.205942
233.632058,592.164754,-9729.412825,-814.226536
233.632378,888.247130,-9729.412825,-1110.308913
233.632698,1332.370696,-10035.851024,-1110.308913
233.633018,1036.288319,-10418.898773,-666.185348
233.633339,444.123565,-9882.631924,-444.123565
233.633659,370.102971,-9959.241474,-370.102971
233.633979,148.041188,-10035.851024,-74.020594
233.634299,592.164754,-10265.679673,-74.020594
233.634619,518.144159,-9882.631924,0.000000
233.634939,1184.329507,-9882.631924,-666.185348
233.635259,1406.391290,-10189.070123,-444.123565
233.635579,814.226536,-10265.679673,-740.205942
233.635899,740.205942,-10725.336972,-1332.370696
233.636219,148.041188,-10189.070123,-1406.391290
233.636539,0.000000,-10189.070123,-1036.288319
233.636860,444.123565,-10418.898773,-888.247130
233.637180,888.247130,-9422.974625,-592.164754
233.637500,814.226536,-10342.289223,-740.205942
233.637820,888.247130,-10342.289223,-592.164754
233.638140,518.144159,-10189.070123,-222.061783
233.638460,740.205942,-10495.508323,-444.123565
233.638780,444.123565,-10265.679673,0.000000
233.639100,518.144159,-10189.070123,-296.082377
233.639420,296.082377,-10418.898773,0.000000
233.639740,888.247130,-9882.631924,0.000000
233.640060,888.247130,-10495.508323,-518.144159
233.640380,1258.350101,-10418.898773,-370.102971
233.640701,814.226536,-10265.679673,-666.185348
233.641021,814.226536,-10189.070123,-666.185348
233.641341,370.102971,-9576.193725,-296.082377
233.641661,222.061783,-10265.679673,-962.267725
233.641981,518.144159,-10418.898773,-1184.329507
233.642301,444.123565,-10265.679673,-888.247130
233.642621,888.247130,-11644.651570,-1258.350101
233.642941,592.164754,-9882.631924,-1110.308913
233.643261,444.123565,-10418.898773,-296.082377
233.643581,518.144159,-9882.631924,-592.164754
233.643901,740.205942,-10342.289223,-222.061783
233.644222,518.144159,-10418.898773,-74.020594
233.644542,592.164754,-10035.851024,-370.102971
233.644862,592.164754,-10342.289223,-740.205942
233.645182,1110.308913,-10418.898773,-370.102971
233.645502,1776.494261,-10572.117872,-666.185348
233.645822,592.164754,-10112.460574,-814.226536
233.646142,740.205942,-10265.679673,-370.102971
233.646462,0.000000,-9959.241474,-814.226536
233.646782,0.000000,-9806.022374,-814.226536
233.647102,370.102971,-10342.289223,-1184.329507
233.647422,666.185348,-10418.898773,-814.226536
233.647742,592.164754,-10035.851024,-1184.329507
233.648063,666.185348,-10878.556072,-1480.411884
233.648383,740.205942,-10648.727422,-666.185348
233.648703,444.123565,-10112.460574,-370.102971
233.649023,592.164754,-10035.851024,-666.185348
233.649343,592.164754,-10189.070123,-518.144159
233.649663,296.082377,-10342.289223,-222.061783
233.649983,814.226536,-9959.241474,-592.164754
233.650303,1036.288319,-10265.679673,-296.082377
233.650623,962.267725,-10418.898773,-148.041188
233.650943,962.267725,-9882.631924,-148.041188
233.651263,888.247130,-9882.631924,-592.164754
233.651583,518.144159,-10342.289223,-888.247130
233.651904,222.061783,-10265.679673,-740.205942
233.652224,-148.041188,-10495.508323,-444.123565
233.652544,444.123565,-10035.851024,-1184.329507
233.652864,666.185348,-10495.508323,-888.247130
233.653184,444.123565,-10342.289223,-888.247130
233.653504,1480.411884,-9193.145976,0.000000
233.653824,666.185348,-9882.631924,-592.164754
233.654144,888.247130,-10112.460574,-74.020594
233.654464,814.226536,-10418.898773,-148.041188
233.654784,814.226536,-9806.022374,0.000000
233.655104,888.247130,-10265.679673,-444.123565
233.655425,1110.308913,-10265.679673,-74.020594
233.655745,592.164754,-9806.022374,-370.102971
233.656065,740.205942,-10265.679673,-444.123565
233.656385,370.102971,-10495.508323,-370.102971
233.656705,222.061783,-10112.460574,-888.247130
233.657025,0.000000,-10189.070123,-814.226536
233.657345,518.144159,-10112.460574,-1184.329507
233.657665,1332.370696,-8503.660028,-740.205942
233.657985,1258.350101,-10418.898773,-888.247130
233.658305,740.205942,-10189.070123,-1184.329507
233.658625,814.226536,-10495.508323,-518.144159
233.658945,296.082377,-11568.042020,-518.144159
233.659266,666.185348,-9959.241474,-444.123565
233.659586,444.123565,-9882.631924,-444.123565
233.659906,814.226536,-10418.898773,-148.041188
233.660226,1258.350101,-8273.831378,-74.020594
233.660546,814.226536,-9959.241474,0.000000
233.660866,1258.350101,-10418.898773,-222.061783
233.661186,814.226536,-9959.241474,-296.082377
233.661506,962.267725,-10418.898773,-814.226536
233.661826,370.102971,-10495.508323,-1332.370696
233.662146,0.000000,-9882.631924,-1184.329507
233.662466,148.041188,-10035.851024,-1184.329507
233.662787,666.185348,-10112.460574,-1184.329507
233.663107,666.185348,-9806.022374,-370.102971
233.663427,814.226536,-10342.289223,-518.144159
233.663747,592.164754,-10112.460574,-370.102971
233.664067,444.123565,-9882.631924,-518.144159
233.664387,518.144159,-8963.317327,0.000000
233.664707,518.144159,-10342.289223,-222.061783
233.665027,592.164754,-10265.679673,-370.102971
233.665347,814.226536,-10265.679673,-74.020594
233.665667,962.267725,-10112.460574,-148.041188
233.665987,1184.329507,-9729.412825,-592.164754
233.666307,1258.350101,-10265.679673,-666.185348
233.666628,962.267725,-10342.289223,-888.247130
233.666948,518.144159,-9882.631924,-888.247130
233.667268,-444.123565,-10572.117872,-518.144159
233.667588,-740.205942,-10342.289223,-1110.308913
233.667908,74.020594,-10035.851024,-962.267725
233.668228,1036.288319,-9882.631924,-1184.329507
233.668548,592.164754,-9193.145976,-888.247130
233.668868,1406.391290,-10495.508323,-518.144159
233.669188,518.144159,-9882.631924,-296.082377
233.669508,518.144159,-10035.851024,-592.164754
233.669828,444.123565,-10495.508323,-1480.411884
233.670148,666.185348,-10495.508323,-74.020594
233.670469,666.185348,-10265.679673,0.000000
233.670789,1332.370696,-10189.070123,-148.041188
233.671109,1332.370696,-10112.460574,-222.061783
233.671429,1332.370696,-9806.022374,-296.082377
233.671749,962.267725,-9882.631924,-740.205942
233.672069,814.226536,-9882.631924,-1036.288319
233.672389,148.041188,-10572.117872,-888.247130
233.672709,0.000000,-10342.289223,-814.226536
233.673029,0.000000,-10342.289223,-1184.329507
233.673349,444.123565,-10572.117872,-1258.350101
233.673669,1110.308913,-9806.022374,-1480.411884
233.673990,296.082377,-9882.631924,-814.226536
233.674310,962.267725,-10572.117872,-666.185348
233.674630,592.164754,-9882.631924,-666.185348
233.674950,444.123565,-10189.070123,-148.041188
233.675270,888.247130,-8503.660028,-370.102971
233.675590,962.267725,-10495.508323,-74.020594
233.675910,1036.288319,-9959.241474,0.000000
233.676230,1406.391290,-10342.289223,-74.020594
233.676550,1258.350101,-9882.631924,-296.082377
233.676870,1628.453072,-10418.898773,-666.185348
233.677190,740.205942,-9882.631924,-888.247130
233.677510,74.020594,-10265.679673,-888.247130
233.677830,-592.164754,-10035.851024,-1258.350101
233.678150,-518.144159,-10189.070123,-1702.473667
233.678470,518.144159,-9959.241474,-1480.411884
233.678790,1110.308913,-10112.460574,-1184.329507
233.679110,888.247130,-10035.851024,-1036.288319
233.679430,2072.576638,-10955.165621,-1480.411884
233.679751,1110.308913,-10265.679673,-370.102971
233.680071,666.185348,-10265.679673,-74.020594
233.680391,296.082377,-10265.679673,0.000000
233.680711,222.061783,-8503.660028,740.205942
233.681031,740.205942,-9882.631924,-296.082377
233.681351,1036.288319,-10342.289223,-222.061783
233.681671,1258.350101,-10112.460574,-74.020594
233.681991,1036.288319,-11951.089769,-666.185348
233.682311,666.185348,-10189.070123,-814.226536
233.682631,518.144159,-10342.289223,-962.267725
233.682951,0.000000,-10265.679673,-740.205942
233.683271,518.144159,-10189.070123,-1110.308913
233.683591,370.102971,-9882.631924,-1110.308913
233.683911,740.205942,-9959.241474,-1110.308913
233.684231,592.164754,-10342.289223,-888.247130
233.684551,518.144159,-10418.898773,-592.164754
233.684871,370.102971,-10648.727422,-666.185348
233.685191,1036.288319,-10112.460574,-74.020594
233.685511,518.144159,-10112.460574,-444.123565
233.685831,444.123565,-9882.631924,-222.061783
233.686152,1258.350101,-10495.508323,0.000000
233.686472,1184.329507,-10112.460574,-592.164754
233.686792,1258.350101,-10265.679673,-666.185348
233.687112,1332.370696,-10035.851024,-518.144159
233.687432,1406.391290,-10265.679673,-1036.288319
233.687752,444.123565,-10342.289223,-740.205942
233.688072,0.000000,-10265.679673,-666.185348
233.688392,0.000000,-10189.070123,-962.267725
233.688712,518.144159,-10112.460574,-740.205942
233.689032,666.185348,-10725.336972,-1110.308913
233.689352,666.185348,-10572.117872,-962.267725
233.689672,592.164754,-10342.289223,-518.144159
233.689992,0.000000,-10035.851024,-518.144159
233.690312,370.102971,-10112.460574,370.102971
233.690632,962.267725,-10572.117872,-592.164754
233.690952,814.226536,-10342.289223,-148.041188
233.691272,1554.432478,-10265.679673,-370.102971
233.691592,1776.494261,-10342.289223,-518.144159
233.691912,1628.453072,-10265.679673,-518.144159
233.692232,1110.308913,-10418.898773,-370.102971
233.692553,888.247130,-10265.679673,-592.164754
233.692873,0.000000,-9729.412825,-518.144159
233.693193,0.000000,-10112.460574,-666.185348
233.693513,0.000000,-10035.851024,-1036.288319
233.693833,0.000000,-10112.460574,-888.247130
233.694153,1110.308913,-9959.241474,-1110.308913
233.694473,962.267725,-10418.898773,-592.164754
233.694793,962.267725,-10189.070123,-666.185348
233.695113,518.144159,-10265.679673,-444.123565
233.695433,148.041188,-10112.460574,-222.061783
233.695753,740.205942,-10342.289223,-740.205942
233.696073,222.061783,-10189.070123,-74.020594
233.696393,888.247130,-9882.631924,-444.123565
233.696713,1406.391290,-9806.022374,0.000000
233.697033,296.082377,-9499.584175,148.041188
233.697353,888.247130,-10035.851024,-370.102971
233.697673,814.226536,-9959.241474,-814.226536
233.697993,518.144159,-10265.679673,-666.185348
233.698313,0.000000,-10342.289223,-1184.329507
233.698633,296.082377,-10265.679673,-1184.329507
233.698954,814.226536,-10418.898773,-1036.288319
233.699274,962.267725,-10342.289223,-1110.308913
233.699594,740.205942,-10189.070123,-962.267725
233.699914,370.102971,-9882.631924,-962.267725
233.700234,592.164754,-9959.241474,-296.082377
233.700554,740.205942,-10265.679673,-222.061783
233.700874,518.144159,-10189.070123,0.000000
233.701194,1110.308913,-10342.289223,-518.144159
233.701514,814.226536,-10035.851024,-296.082377
233.701834,1258.350101,-10418.898773,0.000000
233.702154,1258.350101,-10189.070123,-74.020594
233.702474,1258.350101,-8656.879127,0.000000
233.702794,666.185348,-10342.289223,-444.123565
233.703114,74.020594,-10495.508323,-814.226536
233.703434,74.020594,-9959.241474,-1110.308913
233.703754,0.000000,-11338.213370,-1332.370696
233.704074,666.185348,-10418.898773,-1184.329507
233.704394,740.205942,-9806.022374,-1184.329507
233.704714,888.247130,-10265.679673,-814.226536
233.705035,888.247130,-10189.070123,-444.123565
233.705355,1036.288319,-10572.117872,-592.164754
233.705675,370.102971,-10189.070123,-74.020594
233.705995,444.123565,-10418.898773,0.000000
233.706315,518.144159,-10189.070123,-444.123565
233.706635,444.123565,-9499.584175,666.185348
233.706955,1110.308913,-9806.022374,-74.020594
233.707275,1332.370696,-10189.070123,-296.082377
233.707595,1924.535449,-10189.070123,-444.123565
233.707915,1258.350101,-10342.289223,-296.082377
233.708235,444.123565,-9729.412825,-592.164754
233.708555,-296.082377,-10035.851024,-1184.329507
233.708875,-222.061783,-10495.508323,-1184.329507
233.709195,0.000000,-9729.412825,-1110.308913
233.709515,592.164754,-10725.336972,-1258.350101
233.709835,1480.411884,-10342.289223,-1258.350101
233.710155,1184.329507,-9729.412825,-814.226536
233.710475,592.164754,-10189.070123,0.000000
233.710795,222.061783,-9882.631924,74.020594
233.711115,0.000000,-9882.631924,0.000000
233.711436,0.000000,-10035.851024,0.000000
233.711756,518.144159,-10112.460574,0.000000
233.712076,2368.659014,-9499.584175,-370.102971
233.712396,1628.453072,-10418.898773,-296.082377
233.712716,1258.350101,-9959.241474,-962.267725
233.713036,1332.370696,-10112.460574,-518.144159
233.713356,296.082377,-8963.317327,222.061783
233.713676,518.144159,-10418.898773,-962.267725
233.713996,-370.102971,-10112.460574,-888.247130
233.714316,-444.123565,-10189.070123,-1036.288319
233.714636,222.061783,-10189.070123,-1702.473667
233.714956,888.247130,-10035.851024,-740.205942
233.715276,1110.308913,-10035.851024,-888.247130
233.715596,1406.391290,-10342.289223,-222.061783
233.715916,592.164754,-9882.631924,-370.102971
233.716236,0.000000,-10265.679673,148.041188
233.716556,0.000000,-10189.070123,-296.082377
233.716876,296.082377,-10035.851024,-592.164754
233.717196,962.267725,-10112.460574,-444.123565
233.717516,1184.329507,-9729.412825,0.000000
233.717837,1628.453072,-10265.679673,-222.061783
233.718157,1184.329507,-10112.460574,-370.102971
233.718477,740.205942,-10112.460574,-592.164754
233.718797,2220.617826,-9499.584175,-740.205942
233.719117,0.000000,-9882.631924,-962.267725
233.719437,-148.041188,-10189.070123,-666.185348
233.719757,0.000000,-9882.631924,-1036.288319
233.720077,814.226536,-10495.508323,-740.205942
233.720397,1184.329507,-9882.631924,-814.226536
233.720717,1110.308913,-10112.460574,-888.247130
233.721037,814.226536,-10418.898773,-370.102971
233.721357,0.000000,-10189.070123,-370.102971
233.721677,222.061783,-10112.460574,148.041188
233.721997,222.061783,-10418.898773,-148.041188
233.722317,370.102971,-10418.898773,-370.102971
233.722637,1110.308913,-10265.679673,-222.061783
233.722957,1776.494261,-10342.289223,-740.205942
233.723277,1628.453072,-9729.412825,-74.020594
233.723597,962.267725,-9576.193725,0.000000
233.723917,370.102971,-9806.022374,-666.185348
233.724238,0.000000,-9576.193725,-666.185348
233.724558,-370.102971,-10342.289223,-888.247130
233.724878,0.000000,-10418.898773,-962.267725
233.725198,444.123565,-10495.508323,-1110.308913
233.725518,888.247130,-10189.070123,-1110.308913
233.725838,1036.288319,-10418.898773,-1036.288319
233.726158,814.226536,-10418.898773,-592.164754
233.726478,1036.288319,-10035.851024,-296.082377
233.726798,1036.288319,-9959.241474,-222.061783
233.727118,296.082377,-10112.460574,0.000000
233.727438,444.123565,-9959.241474,222.061783
233.727758,444.123565,-9806.022374,0.000000
233.728078,1110.308913,-10572.117872,-222.061783
233.728398,1332.370696,-10265.679673,-296.082377
233.728718,888.247130,-9959.241474,-814.226536
233.729038,888.247130,-10572.117872,-370.102971
233.729358,370.102971,-10035.851024,-666.185348
233.729678,296.082377,-11184.994271,-296.082377
233.729998,148.041188,-10418.898773,-1036.288319
233.730319,666.185348,-9882.631924,-1258.350101
233.730639,592.164754,-10342.289223,-592.164754
233.730959,592.164754,-9882.631924,-518.144159
233.731279,592.164754,-9729.412825,-444.123565
233.731599,666.185348,-10189.070123,-222.061783
233.731919,518.144159,-10189.070123,-222.061783
233.732239,444.123565,-9806.022374,-74.020594
233.732559,740.205942,-10342.289223,-592.164754
233.732879,814.226536,-9882.631924,-296.082377
233.733199,1258.350101,-10418.898773,-222.061783
233.733519,1332.370696,-10035.851024,-740.205942
233.733839,370.102971,-10112.460574,74.020594
233.734159,1258.350101,-10342.289223,-740.205942
233.734479,888.247130,-10572.117872,-592.164754
233.734799,0.000000,-10035.851024,-1036.288319
233.735119,296.082377,-11261.603821,-2146.597232
233.735439,74.020594,-10035.851024,-1332.370696
233.735759,148.041188,-9959.241474,-1110.308913
233.736079,962.267725,-10418.898773,-666.185348
233.736399,518.144159,-9806.022374,222.061783
233.736720,888.247130,-10035.851024,-592.164754
233.737040,814.226536,-10035.851024,-592.164754
233.737360,666.185348,-9882.631924,-444.123565
233.737680,740.205942,-9882.631924,0.000000
233.738000,1332.370696,-10418.898773,-296.082377
233.738320,740.205942,-9959.241474,0.000000
233.738640,888.247130,-10035.851024,-370.102971
233.738960,740.205942,-9959.241474,-592.164754
233.739280,148.041188,-11261.603821,-518.144159
233.739600,222.061783,-10112.460574,-666.185348
233.739920,-370.102971,-10035.851024,-666.185348
233.740240,222.061783,-10189.070123,-1184.329507
233.740560,518.144159,-8503.660028,-444.123565
233.740880,1036.288319,-9806.022374,-1184.329507
233.741200,1110.308913,-10342.289223,-666.185348
233.741520,888.247130,-9959.241474,-518.144159
233.741840,962.267725,-10801.946522,-296.082377
233.742160,592.164754,-9959.241474,-444.123565
233.742480,370.102971,-10112.460574,0.000000
233.742800,370.102971,-9882.631924,-518.144159
233.743121,0.000000,-10035.851024,-222.061783
233.743441,296.082377,-9422.974625,0.000000
233.743761,1406.391290,-10342.289223,-222.061783
233.744081,1110.308913,-10189.070123,-370.102971
233.744401,1110.308913,-10418.898773,-370.102971
233.744721,1480.411884,-10725.336972,-1332.370696
233.745041,518.144159,-10572.117872,-666.185348
233.745361,0.000000,-10265.679673,-888.247130
233.745681,222.061783,-10189.070123,-1480.411884
233.746001,1184.329507,-9346.365076,-1184.329507
233.746321,518.144159,-10265.679673,-814.226536
233.746641,444.123565,-9882.631924,-814.226536
233.746961,370.102971,-10418.898773,-370.102971
233.747281,0.000000,-10725.336972,0.000000
233.747601,592.164754,-10265.679673,-74.020594
233.747921,370.102971,-10112.460574,0.000000
233.748241,1332.370696,-10418.898773,-74.020594
233.748561,1332.370696,-9729.412825,-444.123565
233.748881,1850.514855,-10572.117872,-370.102971
233.749201,1776.494261,-10035.851024,-888.247130
233.749522,1258.350101,-10418.898773,-666.185348
233.749842,148.041188,-9882.631924,-962.267725
233.750162,-296.082377,-9269.755526,-1184.329507
233.750482,-148.041188,-10342.289223,-814.226536
233.750802,-222.061783,-9882.631924,-1406.391290
233.751122,666.185348,-10265.679673,-888.247130
233.751442,1554.432478,-11108.384721,-370.102971
233.751762,1036.288319,-10265.679673,-740.205942
233.752082,962.267725,-10265.679673,-296.082377
233.752402,592.164754,-10189.070123,-296.082377
233.752722,1036.288319,-10189.070123,-592.164754
233.753042,370.102971,-10112.460574,0.000000
233.753362,740.205942,-10112.460574,-296.082377
233.753682,740.205942,-10265.679673,-148.041188
233.754002,740.205942,-9959.241474,-444.123565
233.754322,592.164754,-9959.241474,-666.185348
233.754642,814.226536,-10112.460574,-592.164754
233.754962,444.123565,-9959.241474,-518.144159
233.755282,444.123565,-10035.851024,-962.267725
233.755603,444.123565,-10495.508323,-666.185348
233.755923,518.144159,-10189.070123,-888.247130
233.756243,1258.350101,-10342.289223,-1110.308913
233.756563,592.164754,-10112.460574,-1110.308913
233.756883,1776.494261,-10955.165621,-1702.473667
233.757203,666.185348,-10725.336972,-444.123565
233.757523,444.123565,-10189.070123,-518.144159
233.757843,518.144159,-10265.679673,-296.082377
233.758163,0.000000,-9039.926876,222.061783
233.758483,666.185348,-10112.460574,-296.082377
233.758803,814.226536,-10112.460574,74.020594
233.759123,962.267725,-10189.070123,-296.082377
233.759443,1110.308913,-9959.241474,-148.041188
233.759763,1184.329507,-10112.460574,-296.082377
233.760083,962.267725,-9882.631924,-888.247130
233.760403,444.123565,-10189.070123,-666.185348
233.760723,518.144159,-10035.851024,-1036.288319
233.761043,518.144159,-9193.145976,-1332.370696
233.761363,74.020594,-10265.679673,-962.267725
233.761683,0.000000,-10189.070123,-1184.329507
233.762004,0.000000,-10112.460574,-592.164754
233.762324,148.041188,-8886.707777,0.000000
233.762644,666.185348,-10342.289223,-222.061783
233.762964,962.267725,-10495.508323,-444.123565
233.763284,814.226536,-10035.851024,0.000000
233.763604,1110.308913,-10265.679673,-592.164754
233.763924,888.247130,-10112.460574,0.000000
233.764244,1184.329507,-9882.631924,-518.144159
233.764564,1110.308913,-10035.851024,-518.144159
233.764884,444.123565,-9959.241474,-444.123565
233.765204,444.123565,-9652.803275,-1258.350101
233.765524,148.041188,-9729.412825,-1184.329507
233.765844,222.061783,-10342.289223,-1184.329507
233.766164,0.000000,-10342.289223,-1184.329507
233.766484,1110.308913,-10725.336972,-1036.288319
233.766804,444.123565,-10265.679673,-888.247130
233.767124,814.226536,-10112.460574,-444.123565
233.767444,370.102971,-10418.898773,0.000000
233.767764,962.267725,-10572.117872,-74.020594
233.768084,740.205942,-9806.022374,-444.123565
233.768405,1184.329507,-10418.898773,0.000000
233.768725,1332.370696,-9882.631924,-518.144159
233.769045,1036.288319,-10189.070123,-222.061783
233.769365,814.226536,-9882.631924,-370.102971
233.769685,1110.308913,-10495.508323,-370.102971
233.770005,444.123565,-9882.631924,-814.226536
233.770325,518.144159,-10572.117872,-888.247130
233.770645,148.041188,-10648.727422,-888.247130
233.770965,0.000000,-10189.070123,-962.267725
233.771285,518.144159,-10495.508323,-1184.329507
233.771605,592.164754,-9882.631924,-814.226536
233.771925,888.247130,-9806.022374,-1258.350101
233.772245,592.164754,-10035.851024,-666.185348
233.772565,518.144159,-10112.460574,-444.123565
233.772885,74.020594,-10189.070123,0.000000
233.773205,1184.329507,-10572.117872,-518.144159
233.773525,888.247130,-10189.070123,-296.082377
233.773845,814.226536,-10035.851024,0.000000
233.774165,1406.391290,-10418.898773,-370.102971
233.774485,1036.288319,-10418.898773,0.000000
233.774806,962.267725,-9806.022374,-296.082377
233.775126,444.123565,-10035.851024,-888.247130
233.775446,370.102971,-10418.898773,-666.185348
233.775766,148.041188,-10035.851024,-962.267725
233.776086,74.020594,-10035.851024,-1332.370696
233.776406,740.205942,-10418.898773,-814.226536
233.776726,1036.288319,-9882.631924,-1480.411884
233.777046,740.205942,-10265.679673,-666.185348
233.777364,518.144159,-10342.289223,-296.082377
233.777684,592.164754,-10035.851024,-592.164754
233.778004,592.164754,-11031.775171,0.000000
233.778324,518.144159,-10265.679673,0.000000
233.778644,888.247130,-12180.918418,-592.164754
233.778964,1110.308913,-10418.898773,-222.061783
233.779284,1406.391290,-10112.460574,-74.020594
233.779605,962.267725,-9959.241474,-296.082377
233.779925,888.247130,-8656.879127,0.000000
233.780245,962.267725,-9806.022374,-518.144159
233.780565,148.041188,-10112.460574,-740.205942
233.780885,0.000000,-10035.851024,-1036.288319
233.781205,518.144159,-10189.070123,-1110.308913
233.781525,1036.288319,-10189.070123,-1702.473667
233.781845,1110.308913,-10112.460574,-1480.411884
233.782165,962.267725,-10418.898773,-962.267725
233.782485,592.164754,-10112.460574,-888.247130
233.782805,518.144159,-10112.460574,-74.020594
233.783125,666.185348,-9882.631924,-444.123565
233.783445,370.102971,-10189.070123,-148.041188
233.783765,370.102971,-10035.851024,-148.041188
233.784086,814.226536,-10801.946522,-814.226536
233.784406,740.205942,-10265.679673,-296.082377
233.784726,962.267725,-10035.851024,-222.061783
233.785046,1554.432478,-10572.117872,-518.144159
233.785366,1332.370696,-9193.145976,-1184.329507
233.785686,1110.308913,-10418.898773,-814.226536
233.786006,222.061783,-10189.070123,-1036.288319
233.786326,0.000000,-10265.679673,-1036.288319
233.786646,370.102971,-10189.070123,-1184.329507
233.786966,444.123565,-10189.070123,-962.267725
233.787286,296.082377,-10572.117872,-518.144159
233.787606,666.185348,-10035.851024,-888.247130
233.787926,740.205942,-10112.460574,-370.102971
233.788246,444.123565,-10878.556072,-666.185348
233.788567,888.247130,-9882.631924,-592.164754
233.788887,962.267725,-10418.898773,-222.061783
233.789207,666.185348,-9882.631924,-444.123565
233.789527,814.226536,-9116.536426,-592.164754
233.789847,962.267725,-9806.022374,-222.061783
233.790167,962.267725,-10035.851024,-888.247130
233.790487,740.205942,-10112.460574,-666.185348
233.790807,740.205942,-10112.460574,-666.185348
233.791127,222.061783,-10035.851024,-518.144159
233.791447,74.020594,-9882.631924,-962.267725
233.791767,592.164754,-10418.898773,-666.185348
233.792087,148.041188,-10189.070123,-666.185348
233.792407,222.061783,-10112.460574,-518.144159
233.792727,370.102971,-9882.631924,-962.267725
233.793048,740.205942,-10265.679673,-444.123565
233.793368,740.205942,-9882.631924,-740.205942
233.793688,592.164754,-10495.508323,-74.020594
233.794008,888.247130,-10035.851024,-370.102971
233.794328,1110.308913,-10265.679673,-296.082377
233.794648,1110.308913,-10265.679673,-148.041188
233.794968,1332.370696,-10342.289223,-74.020594
233.795288,296.082377,-9882.631924,-666.185348
233.795608,370.102971,-10495.508323,-666.185348
233.795928,222.061783,-10112.460574,-444.123565
233.796248,296.082377,-9959.241474,-518.144159
233.796568,666.185348,-9882.631924,-1184.329507
233.796888,814.226536,-10342.289223,-814.226536
233.797208,444.123565,-9882.631924,-1036.288319
233.797529,444.123565,-9959.241474,-1036.288319
233.797849,0.000000,-10342.289223,-740.205942
233.798169,74.020594,-10265.679673,-444.123565
233.798489,592.164754,-10112.460574,-74.020594
233.798809,962.267725,-9882.631924,-592.164754
233.799129,1850.514855,-10342.289223,-518.144159
233.799449,814.226536,-9959.241474,0.000000
233.799769,1110.308913,-10112.460574,0.000000
233.800089,666.185348,-10342.289223,-148.041188
233.800409,296.082377,-9806.022374,740.205942
233.800729,296.082377,-9882.631924,-518.144159
233.801049,444.123565,-10725.336972,-1036.288319
233.801369,0.000000,-9959.241474,-1406.391290
233.801690,296.082377,-8963.317327,-592.164754
233.802010,518.144159,-10189.070123,-1332.370696
233.802330,518.144159,-10189.070123,-1110.308913
233.802650,962.267725,-10342.289223,-888.247130
233.802970,518.144159,-10189.070123,-592.164754
233.803290,518.144159,-10189.070123,-74.020594
233.803610,222.061783,-10189.070123,74.020594
233.803930,1036.288319,-10265.679673,74.020594
233.804250,888.247130,-10035.851024,0.000000
233.804570,1110.308913,-9806.022374,-148.041188
233.804890,962.267725,-10035.851024,-444.123565
233.805210,518.144159,-9882.631924,-370.102971
233.805530,814.226536,-10495.508323,-740.205942
233.805850,592.164754,-10725.336972,-814.226536
233.806171,222.061783,-10495.508323,-814.226536
233.806491,296.082377,-10418.898773,-1258.350101
233.806811,148.041188,-10035.851024,-1406.391290
233.807131,666.185348,-9193.145976,-1110.308913
233.807451,1110.308913,-10265.679673,-1110.308913
233.807771,1110.308913,-9959.241474,-1110.308913
233.808091,888.247130,-10189.070123,-296.082377
233.808411,666.185348,-10342.289223,-296.082377
233.808731,148.041188,-10189.070123,0.000000
233.809051,74.020594,-10112.460574,222.061783
233.809371,518.144159,-10265.679673,-296.082377
233.809691,740.205942,-10189.070123,0.000000
233.810011,1110.308913,-9576.193725,0.000000
233.810331,962.267725,-9959.241474,-370.102971
233.810652,888.247130,-10035.851024,-888.247130
233.810972,814.226536,-10495.508323,-814.226536
233.811292,222.061783,-9499.584175,-1406.391290
233.811612,518.144159,-9729.412825,-1184.329507
233.811932,370.102971,-10265.679673,-814.226536
233.812252,518.144159,-10189.070123,-888.247130
233.812572,814.226536,-10112.460574,-370.102971
233.812892,592.164754,-9882.631924,-666.185348
233.813212,740.205942,-10265.679673,-370.102971
233.813532,814.226536,-9882.631924,-814.226536
233.813852,148.041188,-10189.070123,-222.061783
233.814172,592.164754,-10418.898773,-296.082377
233.814492,962.267725,-10189.070123,-592.164754
233.814812,1110.308913,-10265.679673,-444.123565
233.815133,1258.350101,-10035.851024,-592.164754
233.815453,1998.556043,-9729.412825,-444.123565
233.815773,1036.288319,-9959.241474,-592.164754
233.816093,814.226536,-10342.289223,-592.164754
233.816413,0.000000,-10035.851024,-148.041188
233.816733,0.000000,-10265.679673,0.000000
233.817053,222.061783,-10035.851024,-592.164754
233.817373,666.185348,-10112.460574,-444.123565
233.817693,740.205942,-9959.241474,-888.247130
233.818013,222.061783,-10265.679673,0.000000
233.818333,222.061783,-10801.946522,-740.205942
233.818653,222.061783,-10035.851024,-666.185348
233.818973,888.247130,-10342.289223,-740.205942
233.819293,518.144159,-10112.460574,-666.185348
233.819614,962.267725,-10035.851024,-592.164754
233.819934,814.226536,-10265.679673,-296.082377
233.820254,1110.308913,-10495.508323,-296.082377
233.820574,666.185348,-10189.070123,-296.082377
233.820894,1480.411884,-10265.679673,-518.144159
233.821214,518.144159,-10035.851024,-592.164754
233.821534,0.000000,-10189.070123,-370.102971
233.821854,518.144159,-10342.289223,-888.247130
233.822174,-518.144159,-9193.145976,-296.082377
233.822494,592.164754,-10265.679673,-1184.329507
233.822814,222.061783,-10342.289223,-1036.288319
233.823134,518.144159,-10418.898773,-888.247130
233.823454,148.041188,-9959.241474,-1480.411884
233.823774,814.226536,-10418.898773,-370.102971
233.824095,814.226536,-10189.070123,-592.164754
233.824415,814.226536,-9959.241474,0.000000
233.824735,1110.308913,-10265.679673,-296.082377
233.825055,962.267725,-9882.631924,0.000000
233.825375,888.247130,-10112.460574,0.000000
233.825695,888.247130,-10035.851024,-296.082377
233.826015,370.102971,-10112.460574,0.000000
233.826335,814.226536,-11338.213370,-1184.329507
233.826655,0.000000,-10495.508323,-666.185348
233.826975,0.000000,-10418.898773,-1184.329507
233.827295,0.000000,-10342.289223,-1554.432478
233.827615,740.205942,-9499.584175,-740.205942
233.827935,1110.308913,-9882.631924,-1184.329507
233.828255,814.226536,-10189.070123,-814.226536
233.828576,1406.391290,-10342.289223,-592.164754
233.828896,1184.329507,-11031.775171,0.000000
233.829216,740.205942,-10648.727422,-74.020594
233.829536,0.000000,-10265.679673,148.041188
233.829856,296.082377,-10265.679673,-148.041188
233.830176,592.164754,-10035.851024,-592.164754
233.830496,592.164754,-9882.631924,0.000000
233.830816,1110.308913,-10189.070123,-592.164754
233.831136,740.205942,-10035.851024,-888.247130
233.831456,1036.288319,-10265.679673,-962.267725
233.831776,222.061783,-10342.289223,-1184.329507
233.832096,0.000000,-10112.460574,-962.267725
233.832416,962.267725,-10572.117872,-1258.350101
233.832737,592.164754,-10035.851024,-962.267725
233.833057,444.123565,-10878.556072,-666.185348
233.833377,370.102971,-10189.070123,-740.205942
233.833697,518.144159,-10342.289223,-444.123565
233.834017,148.041188,-9729.412825,0.000000
233.834337,296.082377,-9959.241474,-74.020594
233.834657,444.123565,-9806.022374,-592.164754
233.834977,740.205942,-10189.070123,0.000000
233.835297,1258.350101,-10342.289223,-148.041188
233.835617,1332.370696,-10035.851024,-444.123565
233.835937,1554.432478,-10572.117872,-296.082377
233.836257,740.205942,-9882.631924,-518.144159
233.836577,814.226536,-10572.117872,-666.185348
233.836897,0.000000,-10112.460574,-814.226536
233.837218,-814.226536,-10495.508323,-222.061783
233.837538,74.020594,-10418.898773,-962.267725
233.837858,296.082377,-9959.241474,-1258.350101
233.838178,814.226536,-9882.631924,-1184.329507
233.838498,2146.597232,-11261.603821,-2368.659014
233.838818,370.102971,-10035.851024,-1036.288319
233.839138,518.144159,-10495.508323,-518.144159
233.839458,296.082377,-9882.631924,-148.041188
233.839778,740.205942,-9729.412825,-592.164754
233.840098,592.164754,-9806.022374,-370.102971
233.840418,1554.432478,-10265.679673,-148.041188
233.840738,1258.350101,-10035.851024,-370.102971
233.841058,1332.370696,-10265.679673,-148.041188
233.841378,888.247130,-10495.508323,-222.061783
233.841699,148.041188,-10189.070123,-370.102971
233.842019,148.041188,-10572.117872,-518.144159
233.842339,0.000000,-9882.631924,-962.267725
233.842659,-296.082377,-9806.022374,-666.185348
233.842979,148.041188,-9806.022374,-1258.350101
233.843299,1110.308913,-10265.679673,-814.226536
233.843619,1184.329507,-9882.631924,-1184.329507
233.843939,1628.453072,-10648.727422,-2072.576638
233.844259,666.185348,-10725.336972,-666.185348
233.844579,444.123565,-10112.460574,-740.205942
233.844899,222.061783,-10418.898773,-296.082377
233.845219,518.144159,-9576.193725,-444.123565
233.845539,814.226536,-10418.898773,222.061783
233.845859,1184.329507,-10112.460574,-444.123565
233.846180,1406.391290,-9959.241474,0.000000
233.846500,1776.494261,-10035.851024,-296.082377
233.846820,1184.329507,-9422.974625,-888.247130
233.847140,814.226536,-10265.679673,-740.205942
233.847460,0.000000,-10189.070123,-814.226536
233.847780,0.000000,-9959.241474,-1406.391290
233.848100,222.061783,-10955.165621,-1406.391290
233.848420,296.082377,-10189.070123,-1480.411884
233.848740,740.205942,-10342.289223,-1110.308913
233.849060,592.164754,-9882.631924,-1184.329507
233.849380,666.185348,-8656.879127,-740.205942
233.849700,592.164754,-9882.631924,-148.041188
233.850020,666.185348,-9882.631924,-444.123565
233.850340,740.205942,-10418.898773,0.000000
233.850661,962.267725,-11338.213370,0.000000
233.850981,1332.370696,-9959.241474,74.020594
233.851301,1554.432478,-9959.241474,-444.123565
233.851621,1258.350101,-10265.679673,-370.102971
233.851941,740.205942,-9882.631924,-1036.288319
233.852261,0.000000,-9576.193725,-888.247130
233.852581,0.000000,-10189.070123,-1184.329507
233.852901,0.000000,-10112.460574,-1258.350101
233.853221,518.144159,-10418.898773,-1258.350101
233.853541,740.205942,-10342.289223,-1480.411884
233.853861,1036.288319,-10418.898773,-814.226536
233.854181,888.247130,-10035.851024,-592.164754
233.854501,592.164754,-10035.851024,-222.061783
233.854821,1110.308913,-10418.898773,518.144159
233.855142,444.123565,-9959.241474,-222.061783
233.855462,740.205942,-10418.898773,-74.020594
233.855782,592.164754,-9652.803275,0.000000
233.856102,814.226536,-10418.898773,-148.041188
233.856422,1480.411884,-9806.022374,-592.164754
233.856742,1110.308913,-9959.241474,-296.082377
233.857062,1110.308913,-10265.679673,-888.247130
233.857382,444.123565,-10189.070123,-666.185348
233.857702,518.144159,-10265.679673,-1184.329507
233.858022,0.000000,-10265.679673,-962.267725
233.858342,222.061783,-10035.851024,-1184.329507
233.858662,148.041188,-10112.460574,-962.267725
233.858982,888.247130,-9806.022374,-1554.432478
233.859303,888.247130,-9882.631924,-888.247130
233.859623,1110.308913,-10418.898773,-518.144159
233.859943,444.123565,-10035.851024,-444.123565
233.860263,740.205942,-8580.269578,740.205942
233.860583,814.226536,-10418.898773,296.082377
233.860903,592.164754,-10112.460574,0.000000
233.861223,1110.308913,-10418.898773,-148.041188
233.861543,1554.432478,-10725.336972,-518.144159
233.861863,1332.370696,-10418.898773,-444.123565
233.862183,1184.329507,-9806.022374,-888.247130
233.862503,814.226536,-10189.070123,-666.185348
233.862823,148.041188,-9882.631924,-1184.329507
233.863143,-444.123565,-9882.631924,-1184.329507
233.863463,222.061783,-10572.117872,-1258.350101
233.863784,148.041188,-9882.631924,-1110.308913
233.864104,1258.350101,-10418.898773,-666.185348
233.864424,1628.453072,-9422.974625,-1406.391290
233.864744,1258.350101,-10342.289223,-222.061783
233.865064,740.205942,-9882.631924,-444.123565
233.865384,740.205942,-10418.898773,-74.020594
233.865704,1110.308913,-10648.727422,-592.164754
233.866024,518.144159,-9959.241474,-370.102971
233.866344,888.247130,-10265.679673,-370.102971
233.866664,370.102971,-10342.289223,-296.082377
233.866984,1036.288319,-9806.022374,444.123565
233.867304,962.267725,-10112.460574,-666.185348
233.867624,814.226536,-9882.631924,-888.247130
233.867944,518.144159,-10112.460574,-518.144159
233.868265,370.102971,-10035.851024,-1184.329507
233.868585,296.082377,-9882.631924,-1184.329507
233.868905,1110.308913,-10265.679673,-740.205942
233.869225,740.205942,-9882.631924,-888.247130
233.869545,518.144159,-10112.460574,-370.102971
233.869865,888.247130,-9652.803275,-370.102971
233.870185,592.164754,-9882.631924,-740.205942
233.870505,666.185348,-10265.679673,-370.102971
233.870825,296.082377,-9959.241474,-666.185348
233.871145,592.164754,-10878.556072,-74.020594
233.871465,740.205942,-9959.241474,-592.164754
233.871785,1554.432478,-10418.898773,-444.123565
233.872105,1184.329507,-10035.851024,-740.205942
233.872425,1110.308913,-11491.432470,-296.082377
233.872746,666.185348,-10342.289223,-370.102971
233.873066,0.000000,-9959.241474,-518.144159
233.873386,296.082377,-10112.460574,-1036.288319
233.873706,222.061783,-10112.460574,-666.185348
233.874026,666.185348,-10955.165621,-814.226536
233.874346,148.041188,-9882.631924,-888.247130
233.874666,222.061783,-10418.898773,-592.164754
233.874986,444.123565,-9882.631924,-814.226536
233.875306,814.226536,-10418.898773,-518.144159
233.875626,1258.350101,-10112.460574,-296.082377
233.875946,888.247130,-10035.851024,-296.082377
233.876266,1332.370696,-10572.117872,-148.041188
233.876586,1332.370696,-10572.117872,-814.226536
233.876906,592.164754,-9959.241474,-740.205942
233.877227,740.205942,-10418.898773,-370.102971
233.877547,592.164754,-10189.070123,-888.247130
233.877867,814.226536,-9652.803275,-592.164754
233.878187,518.144159,-10265.679673,-518.144159
233.878507,666.185348,-10189.070123,-888.247130
233.878827,592.164754,-10189.070123,-962.267725
233.879147,666.185348,-10112.460574,-962.267725
233.879467,296.082377,-10035.851024,-1332.370696
233.879787,370.102971,-10418.898773,-666.185348
233.880107,148.041188,-9882.631924,-592.164754
233.880427,666.185348,-10035.851024,-740.205942
233.880747,370.102971,-9959.241474,74.020594
233.881067,1110.308913,-9882.631924,0.000000
233.881387,1184.329507,-9882.631924,-518.144159
233.881708,1110.308913,-10035.851024,-370.102971
233.882028,1628.453072,-11108.384721,-666.185348
233.882348,592.164754,-10112.460574,-296.082377
233.882668,592.164754,-10418.898773,-370.102971
233.882988,148.041188,-10418.898773,-518.144159
233.883308,592.164754,-8810.098227,222.061783
233.883628,592.164754,-10035.851024,-1480.411884
233.883948,740.205942,-10112.460574,-1184.329507
233.884268,518.144159,-10112.460574,-814.226536
233.884588,0.000000,-10342.289223,-814.226536
233.884908,518.144159,-10265.679673,-666.185348
233.885228,296.082377,-10035.851024,-592.164754
233.885548,666.185348,-10418.898773,-296.082377
233.885869,888.247130,-10189.070123,0.000000
233.886189,814.226536,-10265.679673,296.082377
233.886509,1258.350101,-10189.070123,0.000000
233.886829,1110.308913,-10112.460574,74.020594
233.887149,1110.308913,-10112.460574,-222.061783
233.887469,148.041188,-11338.213370,-888.247130
233.887789,222.061783,-9882.631924,-888.247130
233.888109,0.000000,-10265.679673,-888.247130
233.888429,74.020594,-9959.241474,-1184.329507
233.888749,444.123565,-10495.508323,-1258.350101
233.889069,814.226536,-10418.898773,-1406.391290
233.889389,666.185348,-10189.070123,-1036.288319
233.889709,962.267725,-10112.460574,-814.226536
233.890029,444.123565,-9882.631924,-666.185348
233.890350,666.185348,-10648.727422,-296.082377
233.890670,518.144159,-10265.679673,0.000000
233.890990,592.164754,-9806.022374,0.000000
233.891310,1258.350101,-10035.851024,-74.020594
233.891630,962.267725,-9806.022374,444.123565
233.891950,592.164754,-10035.851024,-148.041188
233.892270,1184.329507,-9806.022374,-814.226536
233.892590,888.247130,-10418.898773,-666.185348
233.892910,222.061783,-10725.336972,0.000000
233.893230,0.000000,-10112.460574,-1184.329507
233.893550,74.020594,-10265.679673,-962.267725
233.893870,592.164754,-10035.851024,-1628.453072
233.894190,1628.453072,-9882.631924,-1332.370696
233.894510,1184.329507,-9882.631924,-1184.329507
233.894831,1110.308913,-10495.508323,-518.144159
233.895151,148.041188,-10189.070123,-814.226536
233.895471,74.020594,-9959.241474,-444.123565
233.895791,-148.041188,-9882.631924,0.000000
233.896111,0.000000,-10418.898773,74.020594
233.896431,1036.288319,-9959.241474,0.000000
233.896751,1850.514855,-10112.460574,74.020594
233.897071,2220.617826,-10878.556072,-74.020594
233.897391,1776.494261,-9806.022374,-740.205942
233.897711,1406.391290,-10418.898773,-592.164754
233.898031,592.164754,-10265.679673,-962.267725
233.898351,-888.247130,-9806.022374,-814.226536
233.898671,-592.164754,-9882.631924,-1184.329507
233.898991,0.000000,-10342.289223,-962.267725
233.899312,148.041188,-10265.679673,-888.247130
233.899632,1406.391290,-9499.584175,-740.205942
233.899952,962.267725,-10189.070123,-962.267725
233.900272,962.267725,-10112.460574,-814.226536
233.900592,814.226536,-10418.898773,-296.082377
233.900912,592.164754,-10189.070123,-444.123565
233.901232,1036.288319,-10112.460574,-296.082377
233.901552,296.082377,-9882.631924,0.000000
233.901872,814.226536,-10495.508323,0.000000
233.902192,666.185348,-10265.679673,0.000000
233.902512,814.226536,-9652.803275,296.082377
233.902832,888.247130,-10495.508323,-222.061783
233.903152,592.164754,-9882.631924,-1036.288319
233.903472,518.144159,-10648.727422,-666.185348
233.903793,962.267725,-11108.384721,-2072.576638
233.904113,518.144159,-10495.508323,-962.267725
233.904433,444.123565,-9882.631924,-962.267725
233.904753,1036.288319,-10035.851024,-1184.329507
233.905073,814.226536,-9346.365076,444.123565
233.905393,1036.288319,-9882.631924,-814.226536
233.905713,1036.288319,-10418.898773,-222.061783
233.906033,592.164754,-9806.022374,-592.164754
233.906353,444.123565,-10265.679673,-74.020594
233.906673,296.082377,-10112.460574,-666.185348
233.906993,740.205942,-10112.460574,-444.123565
233.907313,592.164754,-10112.460574,-296.082377
233.907633,1184.329507,-10035.851024,-740.205942
233.907953,1110.308913,-9422.974625,-444.123565
233.908274,1036.288319,-10035.851024,-370.102971
233.908594,740.205942,-10189.070123,-592.164754
233.908914,222.061783,-9959.241474,-518.144159
233.909234,370.102971,-11031.775171,-814.226536
233.909554,518.144159,-10418.898773,-962.267725
233.909874,888.247130,-10035.851024,-1184.329507
233.910194,592.164754,-10572.117872,-740.205942
233.910514,0.000000,-8197.221829,-740.205942
233.910834,148.041188,-10265.679673,-222.061783
233.911154,518.144159,-10265.679673,-296.082377
233.911474,296.082377,-10342.289223,-296.082377
233.911794,740.205942,-10189.070123,-370.102971
233.912114,962.267725,-9729.412825,-222.061783
233.912435,1036.288319,-9959.241474,-370.102971
233.912755,1702.473667,-10265.679673,-296.082377
233.913075,1110.308913,-9959.241474,-444.123565
233.913395,740.205942,-11031.775171,-518.144159
233.913715,74.020594,-10035.851024,-814.226536
233.914035,0.000000,-10265.679673,-888.247130
233.914355,0.000000,-10189.070123,-1110.308913
233.914675,962.267725,-9806.022374,-1110.308913
233.914995,296.082377,-9882.631924,-1110.308913
233.915315,888.247130,-10495.508323,-1184.329507
233.915635,296.082377,-10189.070123,-666.185348
233.915955,518.144159,-10112.460574,0.000000
233.916275,1110.308913,-10572.117872,-518.144159
233.916595,592.164754,-9882.631924,-296.082377
233.916916,1258.350101,-10265.679673,-296.082377
233.917236,888.247130,-10265.679673,0.000000
233.917556,1258.350101,-10342.289223,-74.020594
233.917876,888.247130,-9882.631924,-370.102971
233.918196,740.205942,-10418.898773,-296.082377
233.918516,296.082377,-10189.070123,-296.082377
233.918836,592.164754,-10495.508323,-666.185348
233.919156,0.000000,-10112.460574,-1110.308913
233.919476,444.123565,-10112.460574,-1184.329507
233.919796,370.102971,-10189.070123,-1036.288319
233.920116,0.000000,-10725.336972,-1258.350101
233.920436,592.164754,-9806.022374,-1258.350101
233.920756,666.185348,-10112.460574,-444.123565
233.921076,518.144159,-10035.851024,-740.205942
233.921397,1184.329507,-9806.022374,0.000000
233.921717,888.247130,-10418.898773,-74.020594
233.922037,740.205942,-9729.412825,0.000000
233.922357,740.205942,-10418.898773,148.041188
233.922677,814.226536,-10112.460574,0.000000
233.922997,1258.350101,-10265.679673,-296.082377
233.923317,814.226536,-10189.070123,-444.123565
233.923637,370.102971,-10112.460574,-592.164754
233.923957,0.000000,-10035.851024,-592.164754
233.924277,222.061783,-10418.898773,-1184.329507
233.924597,592.164754,-10265.679673,-1184.329507
233.924917,1036.288319,-10342.289223,-1480.411884
233.925237,518.144159,-10418.898773,-740.205942
233.925557,1480.411884,-11108.384721,-1406.391290
233.925878,296.082377,-10572.117872,-666.185348
233.926198,518.144159,-10265.679673,-592.164754
233.926518,296.082377,-9959.241474,-370.102971
233.926838,740.205942,-9346.365076,592.164754
233.927158,962.267725,-10189.070123,-74.020594
233.927478,740.205942,-9882.631924,-222.061783
233.927798,1110.308913,-9806.022374,-296.082377
233.928118,1554.432478,-10265.679673,-148.041188
233.928438,1110.308913,-10342.289223,-666.185348
233.928758,444.123565,-10035.851024,-1036.288319
233.929078,296.082377,-10342.289223,-1036.288319
233.929398,0.000000,-10189.070123,-814.226536
233.929718,-370.102971,-10265.679673,-888.247130
233.930038,444.123565,-10572.117872,-1110.308913
233.930359,888.247130,-10112.460574,-814.226536
233.930679,1332.370696,-10189.070123,-1036.288319
233.930999,666.185348,-9806.022374,-814.226536
233.931319,1110.308913,-10035.851024,-444.123565
233.931639,518.144159,-10189.070123,-296.082377
233.931959,296.082377,-10265.679673,0.000000
233.932279,0.000000,-10495.508323,0.000000
233.932599,0.000000,-9959.241474,-370.102971
233.932919,518.144159,-10035.851024,-74.020594
233.933239,888.247130,-10112.460574,-296.082377
233.933559,1184.329507,-9882.631924,-666.185348
233.933879,1258.350101,-9729.412825,-740.205942
233.934199,1258.350101,-10112.460574,-518.144159
233.934520,592.164754,-10189.070123,-740.205942
233.934840,0.000000,-10572.117872,-814.226536
233.935160,-296.082377,-10342.289223,-1184.329507
233.935480,444.123565,-9882.631924,-1184.329507
233.935800,1110.308913,-9882.631924,-1110.308913
233.936120,1036.288319,-10418.898773,-518.144159
233.936440,518.144159,-10725.336972,296.082377
233.936760,592.164754,-9806.022374,-518.144159
233.937080,444.123565,-9729.412825,-518.144159
233.937400,370.102971,-10342.289223,0.000000
233.937720,370.102971,-10878.556072,-370.102971
233.938040,814.226536,-10572.117872,-518.144159
233.938360,1110.308913,-10342.289223,-370.102971
233.938680,1036.288319,-10112.460574,-222.061783
233.939001,888.247130,-9882.631924,-962.267725
233.939321,1184.329507,-9959.241474,-1110.308913
233.939641,518.144159,-10495.508323,-666.185348
233.939961,148.041188,-10342.289223,-1036.288319
233.940281,0.000000,-10265.679673,-666.185348
233.940601,814.226536,-10418.898773,-962.267725
233.940921,444.123565,-9806.022374,-888.247130
233.941241,1110.308913,-10112.460574,-888.247130
233.941561,1036.288319,-10035.851024,-444.123565
233.941881,444.123565,-8963.317327,148.041188
233.942201,740.205942,-9882.631924,-740.205942
233.942521,296.082377,-9882.631924,-740.205942
233.942841,518.144159,-10342.289223,-444.123565
233.943161,222.061783,-10878.556072,-518.144159
233.943482,740.205942,-10112.460574,-296.082377
233.943802,1036.288319,-10035.851024,-592.164754
233.944122,962.267725,-10112.460574,-222.061783
233.944442,962.267725,-10035.851024,-592.164754
233.944762,592.164754,-10112.460574,-592.164754
233.945082,518.144159,-10725.336972,-370.102971
233.945402,148.041188,-10035.851024,-1036.288319
233.945722,740.205942,-10418.898773,-814.226536
233.946042,1332.370696,-10648.727422,-1110.308913
233.946362,592.164754,-10342.289223,-1036.288319
233.946682,962.267725,-10418.898773,-814.226536
233.947002,592.164754,-9959.241474,-1036.288319
233.947322,0.000000,-9806.022374,-370.102971
233.947642,370.102971,-9882.631924,-592.164754
233.947963,222.061783,-10572.117872,-444.123565
233.948283,296.082377,-10189.070123,-592.164754
233.948603,1110.308913,-10955.165621,-1110.308913
233.948923,1184.329507,-9806.022374,-518.144159
233.949243,1480.411884,-10112.460574,-74.020594
233.949563,1258.350101,-9882.631924,-592.164754
233.949883,666.185348,-10572.117872,-222.061783
233.950203,370.102971,-10572.117872,-666.185348
233.950523,148.041188,-9882.631924,-1036.288319
233.950843,222.061783,-10265.679673,-666.185348
233.951163,370.102971,-10112.460574,-1036.288319
233.951483,222.061783,-9576.193725,-1036.288319
233.951803,296.082377,-10035.851024,-1036.288319
233.952123,814.226536,-10265.679673,-740.205942
233.952444,740.205942,-9806.022374,-592.164754
233.952764,1258.350101,-9729.412825,-518.144159
233.953084,1110.308913,-10418.898773,-370.102971
233.953404,740.205942,-10035.851024,-296.082377
233.953724,1036.288319,-10342.289223,-74.020594
233.954044,666.185348,-9806.022374,74.020594
233.954364,814.226536,-9806.022374,-444.123565
233.954684,518.144159,-10342.289223,-222.061783
233.955004,518.144159,-10342.289223,-1036.288319
233.955324,222.061783,-10035.851024,-740.205942
233.955644,518.144159,-10725.336972,-1036.288319
233.955964,370.102971,-10265.679673,-1480.411884
233.956284,814.226536,-10648.727422,-1036.288319
233.956604,370.102971,-9806.022374,-1184.329507
233.956925,1184.329507,-9806.022374,-888.247130
233.957245,592.164754,-9882.631924,-814.226536
233.957565,962.267725,-10572.117872,-370.102971
233.957885,666.185348,-10035.851024,-444.123565
233.958205,740.205942,-10265.679673,962.267725
233.958525,962.267725,-10342.289223,-296.082377
233.958845,740.205942,-9959.241474,0.000000
233.959165,962.267725,-10265.679673,-148.041188
233.959485,1110.308913,-10878.556072,-740.205942
233.959805,814.226536,-10265.679673,-888.247130
233.960125,518.144159,-10418.898773,-666.185348
233.960445,296.082377,-9882.631924,-814.226536
233.960765,592.164754,-9882.631924,-1406.391290
233.961086,814.226536,-9959.241474,-1184.329507
233.961406,962.267725,-10648.727422,-740.205942
233.961726,296.082377,-10418.898773,-666.185348
233.962046,148.041188,-9806.022374,-740.205942
233.962366,1110.308913,-10418.898773,-740.205942
233.962686,370.102971,-10418.898773,0.000000
233.963006,592.164754,-10418.898773,74.020594
233.963326,1110.308913,-10265.679673,-296.082377
233.963646,0.000000,-9729.412825,518.144159
233.963966,1110.308913,-10265.679673,-74.020594
233.964286,1184.329507,-10342.289223,-370.102971
233.964606,592.164754,-9882.631924,-740.205942
233.964926,296.082377,-9039.926876,-592.164754
233.965246,370.102971,-10342.289223,-962.267725
233.965567,0.000000,-10189.070123,-1258.350101
233.965887,0.000000,-10418.898773,-1110.308913
233.966207,222.061783,-9882.631924,-1036.288319
233.966527,740.205942,-10189.070123,-888.247130
233.966847,888.247130,-10265.679673,-592.164754
233.967167,518.144159,-10112.460574,-296.082377
233.967487,296.082377,-9959.241474,-444.123565
233.967807,1036.288319,-9806.022374,-222.061783
233.968127,74.020594,-10035.851024,-148.041188
233.968447,888.247130,-9882.631924,-518.144159
233.968767,1110.308913,-10189.070123,-444.123565
233.969087,1184.329507,-10955.165621,-666.185348
233.969407,1184.329507,-10035.851024,-444.123565
233.969727,1332.370696,-10418.898773,-370.102971
233.970048,592.164754,-10035.851024,-444.123565
233.970368,0.000000,-8886.707777,-888.247130
233.970688,-592.164754,-9729.412825,-962.267725
233.971008,-74.020594,-10418.898773,-1036.288319
233.971328,444.123565,-10112.460574,-1110.308913
233.971648,740.205942,-10112.460574,-1110.308913
233.971968,888.247130,-10495.508323,-1110.308913
233.972288,1036.288319,-9806.022374,-1110.308913
233.972608,888.247130,-10495.508323,-518.144159
233.972928,148.041188,-10265.679673,-74.020594
233.973248,148.041188,-9806.022374,74.020594
233.973568,296.082377,-9882.631924,-518.144159
233.973888,1036.288319,-10035.851024,-296.082377
233.974208,1258.350101,-10418.898773,-74.020594
233.974529,1998.556043,-9269.755526,-518.144159
233.974849,1776.494261,-10112.460574,-518.144159
233.975169,666.185348,-10189.070123,-666.185348
233.975489,518.144159,-9959.241474,-962.267725
233.975809,74.020594,-10648.727422,-1036.288319
233.976129,-518.144159,-10112.460574,-1258.350101
233.976449,296.082377,-9959.241474,-1332.370696
233.976769,962.267725,-10189.070123,-1036.288319
233.977089,1036.288319,-10418.898773,-1110.308913
233.977409,1184.329507,-10265.679673,-740.205942
233.977729,1110.308913,-10265.679673,-370.102971
233.978049,888.247130,-9959.241474,-518.144159
233.978369,740.205942,-9882.631924,0.000000
233.978689,740.205942,-9806.022374,-370.102971
233.979010,740.205942,-10418.898773,-296.082377
233.979330,666.185348,-9959.241474,74.020594
233.979650,962.267725,-9882.631924,-444.123565
233.979970,1036.288319,-9882.631924,370.102971
233.980290,1110.308913,-10342.289223,-666.185348
233.980610,296.082377,-9729.412825,-518.144159
233.980930,74.020594,-10189.070123,-962.267725
233.981250,74.020594,-10955.165621,-1406.391290
233.981570,444.123565,-10342.289223,-1258.350101
233.981890,1110.308913,-10112.460574,-888.247130
233.982210,962.267725,-10495.508323,-740.205942
233.982530,592.164754,-10342.289223,-666.185348
233.982850,444.123565,-9959.241474,-222.061783
233.983170,592.164754,-9959.241474,-518.144159
233.983490,296.082377,-10189.070123,-370.102971
233.983810,148.041188,-10112.460574,-444.123565
233.984130,962.267725,-10418.898773,-370.102971
233.984450,888.247130,-10035.851024,-148.041188
233.984770,1184.329507,-10035.851024,-444.123565
233.985090,1332.370696,-10265.679673,-592.164754
233.985410,888.247130,-9346.365076,0.000000
233.985730,814.226536,-10112.460574,-888.247130
233.986051,222.061783,-10418.898773,-666.185348
233.986371,0.000000,-10035.851024,-1332.370696
233.986691,148.041188,-9576.193725,-1628.453072
233.987011,740.205942,-10035.851024,-1184.329507
233.987331,814.226536,-10418.898773,-740.205942
233.987651,444.123565,-10265.679673,-518.144159
233.987971,888.247130,-10035.851024,-962.267725
233.988291,444.123565,-9959.241474,74.020594
233.988611,740.205942,-9882.631924,-518.144159
233.988931,814.226536,-10189.070123,-148.041188
233.989251,666.185348,-10342.289223,0.000000
233.989571,1036.288319,-10725.336972,-962.267725
233.989891,814.226536,-9882.631924,-296.082377
233.990211,518.144159,-10572.117872,-444.123565
233.990531,296.082377,-9959.241474,-666.185348
233.990851,296.082377,-8810.098227,-888.247130
233.991171,222.061783,-10112.460574,-962.267725
233.991491,74.020594,-10495.508323,-962.267725
233.991811,444.123565,-9959.241474,-1184.329507
233.992131,1110.308913,-10801.946522,-518.144159
233.992451,962.267725,-10418.898773,-666.185348
233.992771,666.185348,-10418.898773,-666.185348
233.993092,370.102971,-10189.070123,-592.164754
233.993412,444.123565,-9806.022374,-518.144159
233.993732,222.061783,-10112.460574,-222.061783
233.994052,592.164754,-9882.631924,-666.185348
233.994372,888.247130,-9959.241474,-740.205942
233.994692,1110.308913,-10342.289223,-444.123565
233.995012,888.247130,-10342.289223,-888.247130
233.995332,1110.308913,-9959.241474,-740.205942
233.995652,814.226536,-10418.898773,-666.185348
233.995972,444.123565,-10265.679673,-370.102971
233.996292,222.061783,-10189.070123,0.000000
233.996612,0.000000,-9882.631924,-1110.308913
233.996932,666.185348,-9959.241474,-1036.288319
233.997252,1110.308913,-10418.898773,-814.226536
233.997572,814.226536,-10418.898773,-962.267725
233.997892,1110.308913,-10418.898773,-666.185348
233.998212,444.123565,-10265.679673,-370.102971
233.998532,296.082377,-10035.851024,-370.102971
233.998852,814.226536,-9806.022374,-592.164754
233.999172,814.226536,-10189.070123,-222.061783
233.999492,888.247130,-10495.508323,-370.102971
233.999812,1036.288319,-10265.679673,-296.082377
234.000133,888.247130,-10035.851024,-592.164754
234.000453,1110.308913,-10648.727422,-518.144159
234.000773,740.205942,-10112.460574,-518.144159
234.001093,592.164754,-9959.241474,-962.267725
234.001413,74.020594,-10342.289223,-888.247130
234.001733,-592.164754,-11338.213370,-962.267725
234.002053,222.061783,-10189.070123,-888.247130
234.002373,740.205942,-9882.631924,-1184.329507
234.002693,814.226536,-9959.241474,-740.205942
234.003013,1480.411884,-8963.317327,-148.041188
234.003333,592.164754,-9959.241474,-814.226536
234.003653,814.226536,-10035.851024,-296.082377
234.003973,814.226536,-10648.727422,-222.061783
234.004293,444.123565,-10112.460574,-296.082377
234.004613,518.144159,-10418.898773,-74.020594
234.004933,888.247130,-10418.898773,-222.061783
234.005253,888.247130,-9882.631924,-222.061783
234.005573,888.247130,-9882.631924,-666.185348
234.005893,666.185348,-9499.584175,-74.020594
234.006213,962.267725,-10112.460574,-888.247130
234.006533,222.061783,-10035.851024,-592.164754
234.006853,0.000000,-10495.508323,-814.226536
234.007174,444.123565,-10801.946522,-1628.453072
234.007494,740.205942,-10572.117872,-962.267725
234.007814,1036.288319,-10418.898773,-888.247130
234.008134,592.164754,-10112.460574,-814.226536
234.008454,592.164754,-8733.488677,-296.082377
234.008774,666.185348,-10189.070123,0.000000
234.009094,518.144159,-9806.022374,-148.041188
234.009414,666.185348,-9806.022374,-518.144159
234.009734,814.226536,-9882.631924,-888.247130
234.010054,1184.329507,-10035.851024,-666.185348
234.010374,1258.350101,-10265.679673,-148.041188
234.010694,1036.288319,-9959.241474,-444.123565
234.011014,740.205942,-10189.070123,-370.102971
234.011334,592.164754,-10265.679673,-518.144159
234.011654,222.061783,-10342.289223,-740.205942
234.011974,0.000000,-10112.460574,-740.205942
234.012294,0.000000,-10342.289223,-888.247130
234.012614,888.247130,-10112.460574,-1258.350101
234.012934,888.247130,-10189.070123,-962.267725
234.013254,814.226536,-10418.898773,-518.144159
234.013574,592.164754,-10265.679673,-666.185348
234.013894,592.164754,-10725.336972,74.020594
234.014215,888.247130,-10035.851024,-148.041188
234.014535,814.226536,-10418.898773,0.000000
234.014855,740.205942,-10418.898773,-148.041188
234.015175,814.226536,-10265.679673,0.000000
234.015495,740.205942,-9652.803275,0.000000
234.015815,962.267725,-10265.679673,-296.082377
234.016135,666.185348,-9806.022374,-592.164754
234.016455,370.102971,-10189.070123,-370.102971
234.016775,148.041188,-10572.117872,-888.247130
234.017095,444.123565,-10265.679673,-1184.329507
234.017415,888.247130,-10342.289223,-814.226536
234.017735,962.267725,-10572.117872,-814.226536
234.018055,1332.370696,-10342.289223,-370.102971
234.018375,296.082377,-10112.460574,-814.226536
234.018695,296.082377,-9882.631924,-666.185348
234.019015,592.164754,-9882.631924,-518.144159
234.019335,1110.308913,-9882.631924,-740.205942
234.019655,740.205942,-9959.241474,-148.041188
234.019975,444.123565,-10342.289223,-222.061783
234.020295,666.185348,-10418.898773,0.000000
234.020615,1184.329507,-10495.508323,-74.020594
234.020935,1406.391290,-10418.898773,-222.061783
234.021256,1110.308913,-9882.631924,-592.164754
234.021576,814.226536,-10342.289223,-444.123565
234.021896,296.082377,-10189.070123,-740.205942
234.022216,74.020594,-9806.022374,-518.144159
234.022536,0.000000,-10189.070123,-962.267725
234.022856,444.123565,-10189.070123,-1110.308913
234.023176,592.164754,-10265.679673,-666.185348
234.023496,296.082377,-8810.098227,0.000000
234.023816,148.041188,-10342.289223,-370.102971
234.024136,444.123565,-9959.241474,-296.082377
234.024456,1110.308913,-9959.241474,-592.164754
234.024776,1110.308913,-9729.412825,-1184.329507
234.025096,1258.350101,-10112.460574,0.000000
234.025416,962.267725,-9882.631924,0.000000
234.025736,1184.329507,-9882.631924,-296.082377
234.026056,1480.411884,-10342.289223,-74.020594
234.026376,592.164754,-10189.070123,-370.102971
234.026696,296.082377,-9806.022374,-592.164754
234.027016,0.000000,-10112.460574,-666.185348
234.027336,-592.164754,-10189.070123,-1184.329507
234.027656,592.164754,-10648.727422,-1110.308913
234.027976,666.185348,-9882.631924,-888.247130
234.028297,1036.288319,-9806.022374,-962.267725
234.028617,1036.288319,-10112.460574,-962.267725
234.028937,1702.473667,-10572.117872,-1258.350101
234.029257,814.226536,-10112.460574,-296.082377
234.029577,592.164754,-10112.460574,-296.082377
234.029897,666.185348,-9882.631924,0.000000
234.030217,1110.308913,-9959.241474,0.000000
234.030537,592.164754,-9959.241474,0.000000
234.030857,666.185348,-10418.898773,74.020594
234.031177,888.247130,-10112.460574,0.000000
234.031497,222.061783,-10418.898773,-296.082377
234.031817,444.123565,-9882.631924,-370.102971
234.032137,370.102971,-10189.070123,-1184.329507
234.032457,148.041188,-9959.241474,-1036.288319
234.032777,814.226536,-10342.289223,-1332.370696
234.033097,1258.350101,-9806.022374,-1258.350101
234.033417,888.247130,-9882.631924,-1406.391290
234.033737,666.185348,-9882.631924,-962.267725
234.034057,888.247130,-10112.460574,-814.226536
234.034377,370.102971,-10725.336972,-444.123565
234.034697,518.144159,-10342.289223,-148.041188
234.035017,444.123565,-10418.898773,-148.041188
234.035338,0.000000,-10112.460574,0.000000
234.035658,444.123565,-10725.336972,0.000000
234.035978,1110.308913,-9806.022374,-592.164754
234.036298,888.247130,-10189.070123,-370.102971
234.036618,740.205942,-10189.070123,-592.164754
234.036938,888.247130,-10035.851024,-740.205942
234.037258,370.102971,-10725.336972,-666.185348
234.037578,370.102971,-9882.631924,-888.247130
234.037898,518.144159,-9806.022374,-1184.329507
234.038218,592.164754,-9882.631924,-1110.308913
234.038538,74.020594,-9959.241474,-888.247130
234.038858,444.123565,-10189.070123,-518.144159
234.039178,666.185348,-10418.898773,-592.164754
234.039498,518.144159,-10112.460574,-370.102971
234.039818,814.226536,-11031.775171,-370.102971
234.040138,740.205942,-10112.460574,-666.185348
234.040458,1110.308913,-10495.508323,-148.041188
234.040778,1406.391290,-9806.022374,-222.061783
234.041098,962.267725,-9882.631924,0.000000
234.041418,740.205942,-10112.460574,-222.061783
234.041738,518.144159,-10112.460574,-370.102971
234.042058,592.164754,-9806.022374,-962.267725
234.042379,0.000000,-9882.631924,-888.247130
234.042699,0.000000,-10265.679673,-888.247130
234.043019,0.000000,-9882.631924,-1036.288319
234.043339,592.164754,-10189.070123,-888.247130
234.043659,666.185348,-10572.117872,-666.185348
234.043979,370.102971,-10112.460574,-666.185348
234.044299,666.185348,-10265.679673,-370.102971
234.044619,592.164754,-9806.022374,-148.041188
234.044939,592.164754,-9959.241474,-370.102971
234.045259,1998.556043,-10648.727422,-666.185348
234.045579,1184.329507,-10342.289223,-222.061783
234.045899,888.247130,-9806.022374,-592.164754
234.046219,1036.288319,-10418.898773,-148.041188
234.046539,666.185348,-9806.022374,962.267725
234.046859,814.226536,-9806.022374,-592.164754
234.047179,518.144159,-10035.851024,-740.205942
234.047499,148.041188,-9959.241474,-962.267725
234.047819,148.041188,-9882.631924,-1332.370696
234.048139,370.102971,-9882.631924,-1110.308913
234.048459,666.185348,-10112.460574,-1110.308913
234.048779,296.082377,-10418.898773,-814.226536
234.049099,148.041188,-10189.070123,-666.185348
234.049420,1184.329507,-9269.755526,-740.205942
234.049740,1110.308913,-10035.851024,-592.164754
234.050060,1036.288319,-10112.460574,-296.082377
234.050380,962.267725,-10112.460574,-148.041188
234.050700,296.082377,-9652.803275,1036.288319
234.051020,1110.308913,-10035.851024,0.000000
234.051340,1184.329507,-10112.460574,-222.061783
234.051660,814.226536,-10189.070123,-518.144159
234.051980,962.267725,-11184.994271,-1628.453072
234.052300,148.041188,-10112.460574,-740.205942
234.052620,444.123565,-10265.679673,-962.267725
234.052940,814.226536,-10265.679673,-962.267725
234.053260,666.185348,-10035.851024,-1110.308913
234.053580,370.102971,-10342.289223,-518.144159
234.053900,222.061783,-9959.241474,-1110.308913
234.054220,518.144159,-10342.289223,-370.102971
234.054540,666.185348,-10265.679673,-148.041188
234.054860,1406.391290,-10112.460574,-444.123565
234.055180,1406.391290,-9959.241474,-222.061783
234.055500,1258.350101,-9806.022374,0.000000
234.055820,1036.288319,-9806.022374,-296.082377
234.056140,1998.556043,-10495.508323,-222.061783
234.056461,1110.308913,-10418.898773,-296.082377
234.056781,666.185348,-10189.070123,-444.123565
234.057101,518.144159,-10265.679673,-888.247130
234.057421,-74.020594,-9116.536426,-740.205942
234.057741,0.000000,-10418.898773,-888.247130
234.058061,444.123565,-10265.679673,-1332.370696
234.058381,666.185348,-9959.241474,-1110.308913
234.058701,888.247130,-9882.631924,-1110.308913
234.059021,1184.329507,-9806.022374,-666.185348
234.059341,222.061783,-10265.679673,-370.102971
234.059661,370.102971,-10112.460574,-148.041188
234.059981,592.164754,-10035.851024,-444.123565
234.060301,814.226536,-9882.631924,-592.164754
234.060621,814.226536,-10189.070123,-296.082377
234.060941,888.247130,-10342.289223,-370.102971
234.061261,888.247130,-9882.631924,-592.164754
234.061581,814.226536,-10725.336972,518.144159
234.061901,814.226536,-10035.851024,-666.185348
234.062221,814.226536,-10035.851024,-1036.288319
234.062541,518.144159,-10418.898773,-666.185348
234.062861,814.226536,-10648.727422,-1036.288319
234.063181,0.000000,-10112.460574,-740.205942
234.063502,0.000000,-10035.851024,-1110.308913
234.063822,888.247130,-10112.460574,-1184.329507
234.064142,814.226536,-10418.898773,-666.185348
234.064462,740.205942,-10418.898773,-740.205942
234.064782,888.247130,-10265.679673,-370.102971
234.065102,592.164754,-9806.022374,-518.144159
234.065422,666.185348,-10572.117872,-296.082377
234.065742,1110.308913,-10112.460574,-370.102971
234.066062,740.205942,-10035.851024,-222.061783
